{
  "Define": [
    {
      "Attribute": "StudyName"
    },
    {
      "Attribute": "StudyDescription"
    },
    {
      "Attribute": "ProtocolName"
    },
    {
      "Attribute": "StandardName",
      "Value": "ADaM-IG"
    },
    {
      "Attribute": "StandardVersion",
      "Value": "1.1"
    },
    {
      "Attribute": "Language",
      "Value": "en"
    },
    {},
    {
      "Attribute": "Legend",
      "Value": "Highlighted cells are required for Define-XML 2.1 and can be ignored for prior versions."
    },
    {
      "Value": "Highlighted cells are used by ADaM only and can be left empty otherwise."
    }
  ],
  "Datasets": [
    {
      "Dataset": "ADAE",
      "Label": "Adverse Events Analysis",
      "Class": "OCCURRENCE DATA STRUCTURE",
      "Structure": "One record per subject per adverse event",
      "Key Variables": "STUDYID, USUBJID",
      "Standard": "ADaM-IG 1.1",
      "Has No Data": "No",
      "Repeating": "Yes",
      "Reference Data": "No"
    },
    {
      "Dataset": "ADBCVA_P",
      "Label": "Best Corrected Visual Acuity Analysis",
      "Class": "BASIC DATA STRUCTURE",
      "Structure": "One or more records per subject per analysis parameter per analysis timepoint",
      "Key Variables": "STUDYID, USUBJID, PARAM, PARAMCD, ATPT",
      "Standard": "ADaM-IG 1.1",
      "Has No Data": "No",
      "Repeating": "Yes",
      "Reference Data": "No"
    },
    {
      "Dataset": "ADCE_V",
      "Label": "Clinical Events Analysis for Vaccine",
      "Standard": "ADaM-IG 1.1",
      "Has No Data": "No",
      "Repeating": "Yes",
      "Reference Data": "No"
    },
    {
      "Dataset": "ADCM",
      "Label": "Concomitant Medications Analysis",
      "Standard": "ADaM-IG 1.1",
      "Has No Data": "No",
      "Repeating": "Yes",
      "Reference Data": "No"
    },
    {
      "Dataset": "ADEG",
      "Label": "Electrocardiogram Tests Analysis",
      "Class": "BASIC DATA STRUCTURE",
      "Structure": "One or more records per subject per analysis parameter per analysis timepoint",
      "Key Variables": "STUDYID, USUBJID, PARAM, PARAMCD, ATPT",
      "Standard": "ADaM-IG 1.1",
      "Has No Data": "No",
      "Repeating": "Yes",
      "Reference Data": "No"
    },
    {
      "Dataset": "ADEX",
      "Label": "Exposure Analysis",
      "Class": "BASIC DATA STRUCTURE",
      "Structure": "One or more records per subject per analysis parameter per analysis start date",
      "Key Variables": "STUDYID, USUBJID, PARAM, PARAMCD, ASTDT",
      "Standard": "ADaM-IG 1.1",
      "Has No Data": "No",
      "Repeating": "Yes",
      "Reference Data": "No"
    },
    {
      "Dataset": "ADFACE_V",
      "Label": "Findings About Clinical Events Analysis",
      "Class": "BASIC DATA STRUCTURE",
      "Structure": "One or more records per subject per analysis parameter per analysis timepoint",
      "Key Variables": "STUDYID, USUBJID, PARAM, PARAMCD, ATPT",
      "Standard": "ADaM-IG 1.1",
      "Has No Data": "No",
      "Repeating": "Yes",
      "Reference Data": "No"
    },
    {
      "Dataset": "ADIS_V",
      "Label": "Immunogenicity Specimen Assessments",
      "Class": "BASIC DATA STRUCTURE",
      "Structure": "One or more records per subject per analysis parameter per analysis timepoint",
      "Key Variables": "STUDYID, USUBJID, PARAM, PARAMCD, ATPT",
      "Standard": "ADaM-IG 1.1",
      "Has No Data": "No",
      "Repeating": "Yes",
      "Reference Data": "No"
    },
    {
      "Dataset": "ADLB",
      "Label": "Laboratory Analysis",
      "Class": "BASIC DATA STRUCTURE",
      "Structure": "One or more records per subject per analysis parameter per analysis visit",
      "Key Variables": "STUDYID, USUBJID, PARAM, PARAMCD, AVISIT",
      "Standard": "ADaM-IG 1.1",
      "Has No Data": "No",
      "Repeating": "Yes",
      "Reference Data": "No"
    },
    {
      "Dataset": "ADLBHY",
      "Label": "Analysis of Lab Hys Law",
      "Class": "BASIC DATA STRUCTURE",
      "Structure": "One or more records per subject per analysis parameter per analysis visit",
      "Key Variables": "STUDYID, USUBJID, PARAM, PARAMCD, AVISIT",
      "Standard": "ADaM-IG 1.1",
      "Has No Data": "No",
      "Repeating": "Yes",
      "Reference Data": "No"
    },
    {
      "Dataset": "ADMH",
      "Label": "Medical History Analysis",
      "Standard": "ADaM-IG 1.1",
      "Has No Data": "No",
      "Repeating": "Yes",
      "Reference Data": "No"
    },
    {
      "Dataset": "ADOE_P",
      "Label": "Exam Analysis for Ophthalmology",
      "Class": "BASIC DATA STRUCTURE",
      "Structure": "One or more records per subject per analysis parameter per analysis timepoint",
      "Key Variables": "STUDYID, USUBJID, PARAM, PARAMCD, ATPT",
      "Standard": "ADaM-IG 1.1",
      "Has No Data": "No",
      "Repeating": "Yes",
      "Reference Data": "No"
    },
    {
      "Dataset": "ADPC",
      "Label": "Pharmacokinetic Concentrations",
      "Class": "BASIC DATA STRUCTURE",
      "Structure": "One or more records per subject per analysis parameter per analysis timepoint",
      "Key Variables": "STUDYID, USUBJID, PARAM, PARAMCD, ATPT",
      "Standard": "ADaM-IG 1.1",
      "Has No Data": "No",
      "Repeating": "Yes",
      "Reference Data": "No"
    },
    {
      "Dataset": "ADPP",
      "Label": "Pharmacokinetic Parameters",
      "Class": "BASIC DATA STRUCTURE",
      "Structure": "One or more records per subject per analysis parameter per analysis visit",
      "Key Variables": "STUDYID, USUBJID, PARAM, PARAMCD, AVISIT",
      "Standard": "ADaM-IG 1.1",
      "Has No Data": "No",
      "Repeating": "Yes",
      "Reference Data": "No"
    },
    {
      "Dataset": "ADPPK",
      "Label": "Population Pharmacokinetic",
      "Standard": "ADaM-IG 1.1",
      "Has No Data": "No",
      "Repeating": "Yes",
      "Reference Data": "No"
    },
    {
      "Dataset": "ADRS_O",
      "Label": "Tumor Response Analysis",
      "Class": "BASIC DATA STRUCTURE",
      "Structure": "One or more records per subject per analysis parameter per analysis visit",
      "Key Variables": "STUDYID, USUBJID, PARAM, PARAMCD, AVISIT",
      "Standard": "ADaM-IG 1.1",
      "Has No Data": "No",
      "Repeating": "Yes",
      "Reference Data": "No"
    },
    {
      "Dataset": "ADSL",
      "Label": "Subject Level Analysis",
      "Class": "SUBJECT LEVEL ANALYSIS DATASET",
      "Structure": "One record per subject",
      "Key Variables": "STUDYID, USUBJID",
      "Standard": "ADaM-IG 1.1",
      "Has No Data": "No",
      "Repeating": "Yes",
      "Reference Data": "No"
    },
    {
      "Dataset": "ADSL_V",
      "Label": "Subject Level Analysis for Vaccine",
      "Standard": "ADaM-IG 1.1",
      "Has No Data": "No",
      "Repeating": "Yes",
      "Reference Data": "No"
    },
    {
      "Dataset": "ADTR_O",
      "Label": "Tumor Results Analysis for Oncology",
      "Class": "BASIC DATA STRUCTURE",
      "Structure": "One or more records per subject per analysis parameter per analysis visit",
      "Key Variables": "STUDYID, USUBJID, PARAM, PARAMCD, AVISIT",
      "Standard": "ADaM-IG 1.1",
      "Has No Data": "No",
      "Repeating": "Yes",
      "Reference Data": "No"
    },
    {
      "Dataset": "ADTTE_O",
      "Label": "Time to Event Analysis for Oncology",
      "Class": "BASIC DATA STRUCTURE",
      "Structure": "One or more records per subject per analysis parameter per analysis date",
      "Key Variables": "STUDYID, USUBJID, PARAM, PARAMCD, ADT",
      "Standard": "ADaM-IG 1.1",
      "Has No Data": "No",
      "Repeating": "Yes",
      "Reference Data": "No"
    },
    {
      "Dataset": "ADVFQ_P",
      "Label": "Visual Function Questionnaire Analysis",
      "Class": "BASIC DATA STRUCTURE",
      "Structure": "One or more records per subject per analysis parameter per analysis visit",
      "Key Variables": "STUDYID, USUBJID, PARAM, PARAMCD, AVISIT",
      "Standard": "ADaM-IG 1.1",
      "Has No Data": "No",
      "Repeating": "Yes",
      "Reference Data": "No"
    },
    {
      "Dataset": "ADVS",
      "Label": "Vital Signs Analysis",
      "Class": "BASIC DATA STRUCTURE",
      "Structure": "One or more records per subject per analysis parameter per analysis timepoint",
      "Key Variables": "STUDYID, USUBJID, PARAM, PARAMCD, ATPT",
      "Standard": "ADaM-IG 1.1",
      "Has No Data": "No",
      "Repeating": "Yes",
      "Reference Data": "No"
    },
    {
      "Dataset": "ADVS_E",
      "Label": "Vital Signs Analysis for Pediatrics",
      "Class": "BASIC DATA STRUCTURE",
      "Structure": "One or more records per subject per analysis parameter per analysis timepoint",
      "Key Variables": "STUDYID, USUBJID, PARAM, PARAMCD, ATPT",
      "Standard": "ADaM-IG 1.1",
      "Has No Data": "No",
      "Repeating": "Yes",
      "Reference Data": "No"
    },
    {
      "Dataset": "ADVS_M",
      "Label": "Vital Signs Analysis for Metabolic",
      "Class": "BASIC DATA STRUCTURE",
      "Structure": "One or more records per subject per analysis parameter per analysis timepoint",
      "Key Variables": "STUDYID, USUBJID, PARAM, PARAMCD, ATPT",
      "Standard": "ADaM-IG 1.1",
      "Has No Data": "No",
      "Repeating": "Yes",
      "Reference Data": "No"
    },
    {
      "Dataset": "ADLB_M",
      "Label": "Laboratory Analysis for Metabolic",
      "Class": "BASIC DATA STRUCTURE",
      "Structure": "One or more records per subject per analysis parameter per analysis visit",
      "Key Variables": "STUDYID, USUBJID, PARAM, PARAMCD, AVISIT",
      "Standard": "ADaM-IG 1.1",
      "Has No Data": "No",
      "Repeating": "Yes",
      "Reference Data": "No"
    },
    {
      "Dataset": "ADCOEQ_M",
      "Label": "Questionnaires Analysis for Metabolic",
      "Class": "BASIC DATA STRUCTURE",
      "Structure": "One or more records per subject per analysis parameter per analysis visit",
      "Key Variables": "STUDYID, USUBJID, PARAM, PARAMCD, AVISIT",
      "Standard": "ADaM-IG 1.1",
      "Has No Data": "No",
      "Repeating": "Yes",
      "Reference Data": "No"
    },
    {
      "Dataset": "ADAB",
      "Label": "Anti-Drug Antibody Analysis Dataset",
      "Class": "BASIC DATA STRUCTURE",
      "Structure": "One or more records per subject per analysis parameter per analysis timepoint",
      "Key Variables": "STUDYID, USUBJID, PARAM, PARAMCD, ATPT",
      "Standard": "ADaM-IG 1.1",
      "Has No Data": "No",
      "Repeating": "Yes",
      "Reference Data": "No"
    },
    {
      "Dataset": "ADAPET_N",
      "Label": "Amyloid PET Scan Analysis Dataset",
      "Class": "BASIC DATA STRUCTURE",
      "Structure": "One or more records per subject per analysis parameter per analysis visit",
      "Key Variables": "STUDYID, USUBJID, PARAM, PARAMCD, AVISIT",
      "Standard": "ADaM-IG 1.1",
      "Has No Data": "No",
      "Repeating": "Yes",
      "Reference Data": "No"
    },
    {
      "Dataset": "ADTPET_N",
      "Label": "Tau PET Scan Analysis Dataset",
      "Class": "BASIC DATA STRUCTURE",
      "Structure": "One or more records per subject per analysis parameter per analysis visit",
      "Key Variables": "STUDYID, USUBJID, PARAM, PARAMCD, AVISIT",
      "Standard": "ADaM-IG 1.1",
      "Has No Data": "No",
      "Repeating": "Yes",
      "Reference Data": "No"
    },
    {
      "Dataset": "ADNV_N",
      "Label": "Nervous System Analysis Dataset",
      "Class": "BASIC DATA STRUCTURE",
      "Structure": "One or more records per subject per analysis parameter per analysis visit",
      "Key Variables": "STUDYID, USUBJID, PARAM, PARAMCD, AVISIT",
      "Standard": "ADaM-IG 1.1",
      "Has No Data": "No",
      "Repeating": "Yes",
      "Reference Data": "No"
    },
    {
      "Dataset": "ADLB_N",
      "Label": "Laboratory Analysis for Neuroscience",
      "Class": "BASIC DATA STRUCTURE",
      "Structure": "One or more records per subject per analysis parameter per analysis visit",
      "Key Variables": "STUDYID, USUBJID, PARAM, PARAMCD, AVISIT",
      "Standard": "ADaM-IG 1.1",
      "Has No Data": "No",
      "Repeating": "Yes",
      "Reference Data": "No"
    }
  ],
  "Variables": [
    {
      "Order": "1",
      "Dataset": "ADAE",
      "Variable": "STUDYID",
      "Label": "Study Identifier",
      "Data Type": "text",
      "Length": "12",
      "Mandatory": "Yes",
      "Role": "OCCDS Identifier Variables",
      "Has No Data": "No"
    },
    {
      "Order": "2",
      "Dataset": "ADAE",
      "Variable": "USUBJID",
      "Label": "Unique Subject Identifier",
      "Data Type": "text",
      "Length": "11",
      "Mandatory": "Yes",
      "Role": "OCCDS Identifier Variables",
      "Has No Data": "No"
    },
    {
      "Order": "3",
      "Dataset": "ADAE",
      "Variable": "SUBJID",
      "Label": "Subject Identifier for the Study",
      "Data Type": "text",
      "Length": "4",
      "Mandatory": "No",
      "Role": "OCCDS Identifier Variables",
      "Has No Data": "No"
    },
    {
      "Order": "4",
      "Dataset": "ADAE",
      "Variable": "SITEID",
      "Label": "Study Site Identifier",
      "Data Type": "text",
      "Length": "3",
      "Mandatory": "No",
      "Role": "OCCDS Identifier Variables",
      "Has No Data": "No"
    },
    {
      "Order": "5",
      "Dataset": "ADAE",
      "Variable": "COUNTRY",
      "Label": "Country",
      "Data Type": "text",
      "Length": "3",
      "Mandatory": "No",
      "Has No Data": "No"
    },
    {
      "Order": "6",
      "Dataset": "ADAE",
      "Variable": "DOMAIN",
      "Label": "Domain Abbreviation",
      "Data Type": "text",
      "Length": "2",
      "Mandatory": "No",
      "Has No Data": "No"
    },
    {
      "Order": "7",
      "Dataset": "ADAE",
      "Variable": "RFSTDTC",
      "Label": "Subject Reference Start Date/Time",
      "Data Type": "datetime",
      "Mandatory": "No",
      "Has No Data": "No"
    },
    {
      "Order": "8",
      "Dataset": "ADAE",
      "Variable": "RFENDTC",
      "Label": "Subject Reference End Date/Time",
      "Data Type": "datetime",
      "Mandatory": "No",
      "Has No Data": "No"
    },
    {
      "Order": "9",
      "Dataset": "ADAE",
      "Variable": "RFXSTDTC",
      "Label": "Date/Time of First Study Treatment",
      "Data Type": "datetime",
      "Mandatory": "No",
      "Has No Data": "No"
    },
    {
      "Order": "10",
      "Dataset": "ADAE",
      "Variable": "RFXENDTC",
      "Label": "Date/Time of Last Study Treatment",
      "Data Type": "datetime",
      "Mandatory": "No",
      "Has No Data": "No"
    },
    {
      "Order": "11",
      "Dataset": "ADAE",
      "Variable": "RFPENDTC",
      "Label": "Date/Time of End of Participation",
      "Data Type": "datetime",
      "Mandatory": "No",
      "Has No Data": "No"
    },
    {
      "Order": "12",
      "Dataset": "ADAE",
      "Variable": "SCRFDT",
      "Label": "Screen Failure Date",
      "Data Type": "integer",
      "Length": "8",
      "Format": "DATE",
      "Mandatory": "No",
      "Has No Data": "No"
    },
    {
      "Order": "13",
      "Dataset": "ADAE",
      "Variable": "FRVDT",
      "Label": "Final Retrieval Visit Date",
      "Data Type": "integer",
      "Length": "8",
      "Format": "DATE",
      "Mandatory": "No",
      "Has No Data": "No"
    },
    {
      "Order": "14",
      "Dataset": "ADAE",
      "Variable": "DTHDTC",
      "Label": "Date/Time of Death",
      "Data Type": "datetime",
      "Mandatory": "No",
      "Has No Data": "No"
    },
    {
      "Order": "15",
      "Dataset": "ADAE",
      "Variable": "DTHADY",
      "Label": "Relative Day of Death",
      "Data Type": "integer",
      "Length": "8",
      "Mandatory": "No",
      "Has No Data": "No"
    },
    {
      "Order": "16",
      "Dataset": "ADAE",
      "Variable": "DTHFL",
      "Label": "Subject Death Flag",
      "Data Type": "text",
      "Length": "1",
      "Mandatory": "No",
      "Has No Data": "No"
    },
    {
      "Order": "17",
      "Dataset": "ADAE",
      "Variable": "LDDTHELD",
      "Label": "Elapsed Days from Last Dose to Death",
      "Data Type": "integer",
      "Length": "8",
      "Mandatory": "No",
      "Has No Data": "No"
    },
    {
      "Order": "18",
      "Dataset": "ADAE",
      "Variable": "LDDTHGR1",
      "Label": "Last Dose to Death - Days Elapsed Grp 1",
      "Data Type": "text",
      "Length": "5",
      "Mandatory": "No",
      "Has No Data": "No"
    },
    {
      "Order": "19",
      "Dataset": "ADAE",
      "Variable": "DTH30FL",
      "Label": "Death Within 30 Days of Last Trt Flag",
      "Data Type": "text",
      "Length": "1",
      "Mandatory": "No",
      "Has No Data": "No"
    },
    {
      "Order": "20",
      "Dataset": "ADAE",
      "Variable": "DTHA30FL",
      "Label": "Death After 30 Days from Last Trt Flag",
      "Data Type": "text",
      "Length": "1",
      "Mandatory": "No",
      "Has No Data": "No"
    },
    {
      "Order": "21",
      "Dataset": "ADAE",
      "Variable": "DTHDOM",
      "Label": "Domain for Date of Death Collection",
      "Data Type": "text",
      "Length": "200",
      "Mandatory": "No",
      "Has No Data": "No"
    },
    {
      "Order": "22",
      "Dataset": "ADAE",
      "Variable": "DTHB30FL",
      "Label": "Death Within 30 Days of First Trt Flag",
      "Data Type": "text",
      "Length": "1",
      "Mandatory": "No",
      "Has No Data": "No"
    },
    {
      "Order": "23",
      "Dataset": "ADAE",
      "Variable": "REGION1",
      "Label": "Geographic Region 1",
      "Data Type": "text",
      "Length": "2",
      "Mandatory": "No",
      "Has No Data": "No"
    },
    {
      "Order": "24",
      "Dataset": "ADAE",
      "Variable": "DMDTC",
      "Label": "Date/Time of Collection",
      "Data Type": "datetime",
      "Mandatory": "No",
      "Has No Data": "No"
    },
    {
      "Order": "25",
      "Dataset": "ADAE",
      "Variable": "DMDY",
      "Label": "Study Day of Collection",
      "Data Type": "integer",
      "Length": "8",
      "Mandatory": "No",
      "Has No Data": "No"
    },
    {
      "Order": "26",
      "Dataset": "ADAE",
      "Variable": "AGE",
      "Label": "Age",
      "Data Type": "integer",
      "Length": "8",
      "Mandatory": "No",
      "Role": "ADSL Subject Demographics Variables",
      "Has No Data": "No"
    },
    {
      "Order": "27",
      "Dataset": "ADAE",
      "Variable": "AGEU",
      "Label": "Age Units",
      "Data Type": "text",
      "Length": "5",
      "Mandatory": "No",
      "Role": "ADSL Subject Demographics Variables",
      "Has No Data": "No"
    },
    {
      "Order": "28",
      "Dataset": "ADAE",
      "Variable": "AGEGR1",
      "Label": "Pooled Age Group 1",
      "Data Type": "integer",
      "Length": "8",
      "Mandatory": "No",
      "Has No Data": "No"
    },
    {
      "Order": "29",
      "Dataset": "ADAE",
      "Variable": "SEX",
      "Label": "Sex",
      "Data Type": "text",
      "Length": "1",
      "Mandatory": "No",
      "Role": "ADSL Subject Demographics Variables",
      "Has No Data": "No"
    },
    {
      "Order": "30",
      "Dataset": "ADAE",
      "Variable": "RACE",
      "Label": "Race",
      "Data Type": "text",
      "Length": "32",
      "Mandatory": "No",
      "Role": "ADSL Subject Demographics Variables",
      "Has No Data": "No"
    },
    {
      "Order": "31",
      "Dataset": "ADAE",
      "Variable": "RACEGR1",
      "Label": "Pooled Race Group 1",
      "Data Type": "text",
      "Length": "9",
      "Mandatory": "No",
      "Has No Data": "No"
    },
    {
      "Order": "32",
      "Dataset": "ADAE",
      "Variable": "ETHNIC",
      "Label": "Ethnicity",
      "Data Type": "text",
      "Length": "22",
      "Mandatory": "No",
      "Has No Data": "No"
    },
    {
      "Order": "33",
      "Dataset": "ADAE",
      "Variable": "SAFFL",
      "Label": "Safety Population Flag",
      "Data Type": "text",
      "Length": "1",
      "Mandatory": "No",
      "Role": "ADSL Population Indicator Variables",
      "Has No Data": "No"
    },
    {
      "Order": "34",
      "Dataset": "ADAE",
      "Variable": "ARM",
      "Label": "Description of Planned Arm",
      "Data Type": "text",
      "Length": "20",
      "Mandatory": "No",
      "Role": "ADSL Treatment Variables",
      "Has No Data": "No"
    },
    {
      "Order": "35",
      "Dataset": "ADAE",
      "Variable": "ARMCD",
      "Label": "Planned Arm Code",
      "Data Type": "text",
      "Length": "6",
      "Mandatory": "No",
      "Has No Data": "No"
    },
    {
      "Order": "36",
      "Dataset": "ADAE",
      "Variable": "ACTARM",
      "Label": "Description of Actual Arm",
      "Data Type": "text",
      "Length": "20",
      "Mandatory": "No",
      "Role": "ADSL Treatment Variables",
      "Has No Data": "No"
    },
    {
      "Order": "37",
      "Dataset": "ADAE",
      "Variable": "ACTARMCD",
      "Label": "Actual Arm Code",
      "Data Type": "text",
      "Length": "6",
      "Mandatory": "No",
      "Has No Data": "No"
    },
    {
      "Order": "38",
      "Dataset": "ADAE",
      "Variable": "TRT01P",
      "Label": "Planned Treatment for Period 01",
      "Data Type": "text",
      "Length": "20",
      "Mandatory": "No",
      "Has No Data": "No"
    },
    {
      "Order": "39",
      "Dataset": "ADAE",
      "Variable": "TRT01A",
      "Label": "Actual Treatment for Period 01",
      "Data Type": "text",
      "Length": "20",
      "Mandatory": "No",
      "Has No Data": "No"
    },
    {
      "Order": "40",
      "Dataset": "ADAE",
      "Variable": "TRTSDT",
      "Label": "Date of First Exposure to Treatment",
      "Data Type": "integer",
      "Length": "8",
      "Format": "DATE",
      "Mandatory": "No",
      "Role": "ADSL Treatment Timing Variables",
      "Has No Data": "No"
    },
    {
      "Order": "41",
      "Dataset": "ADAE",
      "Variable": "TRTSDTM",
      "Label": "Datetime of First Exposure to Treatment",
      "Data Type": "integer",
      "Length": "8",
      "Format": "DATETIME",
      "Mandatory": "No",
      "Role": "ADSL Treatment Timing Variables",
      "Has No Data": "No"
    },
    {
      "Order": "42",
      "Dataset": "ADAE",
      "Variable": "TRTSTMF",
      "Label": "Time of First Exposure Imput. Flag",
      "Data Type": "text",
      "Length": "1",
      "Mandatory": "No",
      "Role": "ADSL Treatment Timing Variables",
      "Has No Data": "No"
    },
    {
      "Order": "43",
      "Dataset": "ADAE",
      "Variable": "TRTEDT",
      "Label": "Date of Last Exposure to Treatment",
      "Data Type": "integer",
      "Length": "8",
      "Format": "DATE",
      "Mandatory": "No",
      "Role": "ADSL Treatment Timing Variables",
      "Has No Data": "No"
    },
    {
      "Order": "44",
      "Dataset": "ADAE",
      "Variable": "TRTEDTM",
      "Label": "Datetime of Last Exposure to Treatment",
      "Data Type": "integer",
      "Length": "8",
      "Format": "DATETIME",
      "Mandatory": "No",
      "Role": "ADSL Treatment Timing Variables",
      "Has No Data": "No"
    },
    {
      "Order": "45",
      "Dataset": "ADAE",
      "Variable": "TRTETMF",
      "Label": "Time of Last Exposure Imput. Flag",
      "Data Type": "text",
      "Length": "1",
      "Mandatory": "No",
      "Role": "ADSL Treatment Timing Variables",
      "Has No Data": "No"
    },
    {
      "Order": "46",
      "Dataset": "ADAE",
      "Variable": "EOSSTT",
      "Label": "End of Study Status",
      "Data Type": "text",
      "Length": "12",
      "Mandatory": "No",
      "Role": "ADSL Subject-Level Trial Experience Variables",
      "Has No Data": "No"
    },
    {
      "Order": "47",
      "Dataset": "ADAE",
      "Variable": "EOSDT",
      "Label": "End of Study Date",
      "Data Type": "integer",
      "Length": "8",
      "Format": "DATE",
      "Mandatory": "No",
      "Role": "ADSL Subject-Level Trial Experience Variables",
      "Has No Data": "No"
    },
    {
      "Order": "48",
      "Dataset": "ADAE",
      "Variable": "RFICDTC",
      "Label": "Date/Time of Informed Consent",
      "Data Type": "text",
      "Length": "1",
      "Mandatory": "No",
      "Has No Data": "No"
    },
    {
      "Order": "49",
      "Dataset": "ADAE",
      "Variable": "RANDDT",
      "Label": "Date of Randomization",
      "Data Type": "integer",
      "Length": "8",
      "Format": "DATE",
      "Mandatory": "No",
      "Role": "ADSL Subject-Level Trial Experience Variables",
      "Has No Data": "No"
    },
    {
      "Order": "50",
      "Dataset": "ADAE",
      "Variable": "LSTALVDT",
      "Label": "Date Last Known Alive",
      "Data Type": "integer",
      "Length": "8",
      "Format": "DATE",
      "Mandatory": "No",
      "Role": "ADSL Subject-Level Trial Experience Variables",
      "Has No Data": "No"
    },
    {
      "Order": "51",
      "Dataset": "ADAE",
      "Variable": "TRTDURD",
      "Label": "Total Treatment Duration (Days)",
      "Data Type": "integer",
      "Length": "8",
      "Mandatory": "No",
      "Role": "ADSL Subject-Level Trial Experience Variables",
      "Has No Data": "No"
    },
    {
      "Order": "52",
      "Dataset": "ADAE",
      "Variable": "DTHDT",
      "Label": "Date of Death",
      "Data Type": "integer",
      "Length": "8",
      "Format": "DATE",
      "Mandatory": "No",
      "Role": "ADSL Subject-Level Trial Experience Variables",
      "Has No Data": "No"
    },
    {
      "Order": "53",
      "Dataset": "ADAE",
      "Variable": "DTHDTF",
      "Label": "Date of Death Imputation Flag",
      "Data Type": "text",
      "Length": "1",
      "Mandatory": "No",
      "Role": "ADSL Subject-Level Trial Experience Variables",
      "Has No Data": "No"
    },
    {
      "Order": "54",
      "Dataset": "ADAE",
      "Variable": "DTHCAUS",
      "Label": "Cause of Death",
      "Data Type": "text",
      "Length": "200",
      "Mandatory": "No",
      "Has No Data": "No"
    },
    {
      "Order": "55",
      "Dataset": "ADAE",
      "Variable": "DTHCGR1",
      "Label": "Cause of Death Reason 1",
      "Data Type": "text",
      "Length": "200",
      "Mandatory": "No",
      "Has No Data": "No"
    },
    {
      "Order": "56",
      "Dataset": "ADAE",
      "Variable": "AESEQ",
      "Label": "Sequence Number",
      "Data Type": "integer",
      "Length": "8",
      "Mandatory": "Yes",
      "Role": "OCCDS Identifier Variables",
      "Has No Data": "No"
    },
    {
      "Order": "57",
      "Dataset": "ADAE",
      "Variable": "AETERM",
      "Label": "Reported Term for the Adverse Event",
      "Data Type": "text",
      "Length": "46",
      "Mandatory": "Yes",
      "Role": "MedDRA Dictionary Coding Variables",
      "Has No Data": "No"
    },
    {
      "Order": "58",
      "Dataset": "ADAE",
      "Variable": "AEDECOD",
      "Label": "Dictionary-Derived Term",
      "Data Type": "text",
      "Length": "46",
      "Mandatory": "No",
      "Role": "MedDRA Dictionary Coding Variables",
      "Has No Data": "No"
    },
    {
      "Order": "59",
      "Dataset": "ADAE",
      "Variable": "AEBODSYS",
      "Label": "Body System or Organ Class",
      "Data Type": "text",
      "Length": "67",
      "Mandatory": "No",
      "Role": "MedDRA Dictionary Coding Variables",
      "Has No Data": "No"
    },
    {
      "Order": "60",
      "Dataset": "ADAE",
      "Variable": "AEBDSYCD",
      "Label": "Body System or Organ Class Code",
      "Data Type": "integer",
      "Length": "8",
      "Mandatory": "No",
      "Role": "MedDRA Dictionary Coding Variables",
      "Has No Data": "No"
    },
    {
      "Order": "61",
      "Dataset": "ADAE",
      "Variable": "AELLT",
      "Label": "Lowest Level Term",
      "Data Type": "text",
      "Length": "46",
      "Mandatory": "No",
      "Role": "MedDRA Dictionary Coding Variables",
      "Has No Data": "No"
    },
    {
      "Order": "62",
      "Dataset": "ADAE",
      "Variable": "AELLTCD",
      "Label": "Lowest Level Term Code",
      "Data Type": "integer",
      "Length": "8",
      "Mandatory": "No",
      "Role": "MedDRA Dictionary Coding Variables",
      "Has No Data": "No"
    },
    {
      "Order": "63",
      "Dataset": "ADAE",
      "Variable": "AEPTCD",
      "Label": "Preferred Term Code",
      "Data Type": "integer",
      "Length": "8",
      "Mandatory": "No",
      "Role": "MedDRA Dictionary Coding Variables",
      "Has No Data": "No"
    },
    {
      "Order": "64",
      "Dataset": "ADAE",
      "Variable": "AEHLT",
      "Label": "High Level Term",
      "Data Type": "text",
      "Length": "8",
      "Mandatory": "No",
      "Role": "MedDRA Dictionary Coding Variables",
      "Has No Data": "No"
    },
    {
      "Order": "65",
      "Dataset": "ADAE",
      "Variable": "AEHLTCD",
      "Label": "High Level Term Code",
      "Data Type": "integer",
      "Length": "8",
      "Mandatory": "No",
      "Role": "MedDRA Dictionary Coding Variables",
      "Has No Data": "No"
    },
    {
      "Order": "66",
      "Dataset": "ADAE",
      "Variable": "AEHLGT",
      "Label": "High Level Group Term",
      "Data Type": "text",
      "Length": "9",
      "Mandatory": "No",
      "Role": "MedDRA Dictionary Coding Variables",
      "Has No Data": "No"
    },
    {
      "Order": "67",
      "Dataset": "ADAE",
      "Variable": "AEHLGTCD",
      "Label": "High Level Group Term Code",
      "Data Type": "integer",
      "Length": "8",
      "Mandatory": "No",
      "Role": "MedDRA Dictionary Coding Variables",
      "Has No Data": "No"
    },
    {
      "Order": "68",
      "Dataset": "ADAE",
      "Variable": "AESOC",
      "Label": "Primary System Organ Class",
      "Data Type": "text",
      "Length": "67",
      "Mandatory": "No",
      "Role": "MedDRA Dictionary Coding Variables",
      "Has No Data": "No"
    },
    {
      "Order": "69",
      "Dataset": "ADAE",
      "Variable": "AESOCCD",
      "Label": "Primary System Organ Class Code",
      "Data Type": "integer",
      "Length": "8",
      "Mandatory": "No",
      "Role": "MedDRA Dictionary Coding Variables",
      "Has No Data": "No"
    },
    {
      "Order": "70",
      "Dataset": "ADAE",
      "Variable": "AESTDTC",
      "Label": "Start Date/Time of Adverse Event",
      "Data Type": "datetime",
      "Mandatory": "No",
      "Role": "Timing Variables",
      "Has No Data": "No"
    },
    {
      "Order": "71",
      "Dataset": "ADAE",
      "Variable": "ASTDT",
      "Label": "Analysis Start Date",
      "Data Type": "integer",
      "Length": "8",
      "Format": "DATE",
      "Mandatory": "No",
      "Role": "Timing Variables",
      "Has No Data": "No"
    },
    {
      "Order": "72",
      "Dataset": "ADAE",
      "Variable": "ASTDTM",
      "Label": "Analysis Start Date/Time",
      "Data Type": "integer",
      "Length": "8",
      "Format": "DATETIME",
      "Mandatory": "No",
      "Role": "Timing Variables",
      "Has No Data": "No"
    },
    {
      "Order": "73",
      "Dataset": "ADAE",
      "Variable": "ASTDTF",
      "Label": "Analysis Start Date Imputation Flag",
      "Data Type": "text",
      "Length": "1",
      "Mandatory": "No",
      "Role": "Timing Variables",
      "Has No Data": "No"
    },
    {
      "Order": "74",
      "Dataset": "ADAE",
      "Variable": "ASTTMF",
      "Label": "Analysis Start Time Imputation Flag",
      "Data Type": "text",
      "Length": "1",
      "Mandatory": "No",
      "Role": "Timing Variables",
      "Has No Data": "No"
    },
    {
      "Order": "75",
      "Dataset": "ADAE",
      "Variable": "AEENDTC",
      "Label": "End Date/Time of Adverse Event",
      "Data Type": "datetime",
      "Mandatory": "No",
      "Role": "Timing Variables",
      "Has No Data": "No"
    },
    {
      "Order": "76",
      "Dataset": "ADAE",
      "Variable": "AENDT",
      "Label": "Analysis End Date",
      "Data Type": "integer",
      "Length": "8",
      "Format": "DATE",
      "Mandatory": "No",
      "Role": "Timing Variables",
      "Has No Data": "No"
    },
    {
      "Order": "77",
      "Dataset": "ADAE",
      "Variable": "AENDTM",
      "Label": "Analysis End Date/Time",
      "Data Type": "integer",
      "Length": "8",
      "Format": "DATETIME",
      "Mandatory": "No",
      "Role": "Timing Variables",
      "Has No Data": "No"
    },
    {
      "Order": "78",
      "Dataset": "ADAE",
      "Variable": "AENDTF",
      "Label": "Analysis End Date Imputation Flag",
      "Data Type": "text",
      "Length": "1",
      "Mandatory": "No",
      "Role": "Timing Variables",
      "Has No Data": "No"
    },
    {
      "Order": "79",
      "Dataset": "ADAE",
      "Variable": "AENTMF",
      "Label": "Analysis End Time Imputation Flag",
      "Data Type": "text",
      "Length": "1",
      "Mandatory": "No",
      "Role": "Timing Variables",
      "Has No Data": "No"
    },
    {
      "Order": "80",
      "Dataset": "ADAE",
      "Variable": "ASTDY",
      "Label": "Analysis Start Relative Day",
      "Data Type": "integer",
      "Length": "8",
      "Mandatory": "No",
      "Role": "Timing Variables",
      "Has No Data": "No"
    },
    {
      "Order": "81",
      "Dataset": "ADAE",
      "Variable": "AESTDY",
      "Label": "Study Day of Start of Adverse Event",
      "Data Type": "integer",
      "Length": "8",
      "Mandatory": "No",
      "Role": "Timing Variables",
      "Has No Data": "No"
    },
    {
      "Order": "82",
      "Dataset": "ADAE",
      "Variable": "AENDY",
      "Label": "Analysis End Relative Day",
      "Data Type": "integer",
      "Length": "8",
      "Mandatory": "No",
      "Role": "Timing Variables",
      "Has No Data": "No"
    },
    {
      "Order": "83",
      "Dataset": "ADAE",
      "Variable": "AEENDY",
      "Label": "Study Day of End of Adverse Event",
      "Data Type": "integer",
      "Length": "8",
      "Mandatory": "No",
      "Role": "Timing Variables",
      "Has No Data": "No"
    },
    {
      "Order": "84",
      "Dataset": "ADAE",
      "Variable": "ADURN",
      "Label": "Analysis Duration (N)",
      "Data Type": "integer",
      "Length": "8",
      "Mandatory": "No",
      "Role": "Timing Variables",
      "Has No Data": "No"
    },
    {
      "Order": "85",
      "Dataset": "ADAE",
      "Variable": "ADURU",
      "Label": "Analysis Duration Units",
      "Data Type": "text",
      "Length": "4",
      "Mandatory": "No",
      "Role": "Timing Variables",
      "Has No Data": "No"
    },
    {
      "Order": "86",
      "Dataset": "ADAE",
      "Variable": "TRTEMFL",
      "Label": "Treatment Emergent Analysis Flag",
      "Data Type": "text",
      "Length": "1",
      "Mandatory": "No",
      "Role": "Adverse Events Indicator Variables",
      "Has No Data": "No"
    },
    {
      "Order": "87",
      "Dataset": "ADAE",
      "Variable": "AOCCIFL",
      "Label": "1st Max Sev./Int. Occurrence Flag",
      "Data Type": "text",
      "Length": "1",
      "Mandatory": "No",
      "Role": "OCCDS Occurrence Flag Variables",
      "Has No Data": "No"
    },
    {
      "Order": "88",
      "Dataset": "ADAE",
      "Variable": "AESER",
      "Label": "Serious Event",
      "Data Type": "text",
      "Length": "1",
      "Mandatory": "Yes",
      "Role": "Adverse Event Descriptive Variables",
      "Has No Data": "No"
    },
    {
      "Order": "89",
      "Dataset": "ADAE",
      "Variable": "AESDTH",
      "Label": "Results in Death",
      "Data Type": "text",
      "Length": "1",
      "Mandatory": "No",
      "Has No Data": "No"
    },
    {
      "Order": "90",
      "Dataset": "ADAE",
      "Variable": "AESLIFE",
      "Label": "Is Life Threatening",
      "Data Type": "text",
      "Length": "1",
      "Mandatory": "No",
      "Has No Data": "No"
    },
    {
      "Order": "91",
      "Dataset": "ADAE",
      "Variable": "AESHOSP",
      "Label": "Requires or Prolongs Hospitalization",
      "Data Type": "text",
      "Length": "1",
      "Mandatory": "No",
      "Has No Data": "No"
    },
    {
      "Order": "92",
      "Dataset": "ADAE",
      "Variable": "AESDISAB",
      "Label": "Persist or Signif Disability/Incapacity",
      "Data Type": "text",
      "Length": "1",
      "Mandatory": "No",
      "Has No Data": "No"
    },
    {
      "Order": "93",
      "Dataset": "ADAE",
      "Variable": "AESCONG",
      "Label": "Congenital Anomaly or Birth Defect",
      "Data Type": "text",
      "Length": "1",
      "Mandatory": "No",
      "Has No Data": "No"
    },
    {
      "Order": "94",
      "Dataset": "ADAE",
      "Variable": "AESEV",
      "Label": "Severity/Intensity",
      "Data Type": "text",
      "Length": "8",
      "Mandatory": "No",
      "Role": "Adverse Event Descriptive Variables",
      "Has No Data": "No"
    },
    {
      "Order": "95",
      "Dataset": "ADAE",
      "Variable": "ASEV",
      "Label": "Analysis Severity/Intensity",
      "Data Type": "text",
      "Length": "8",
      "Mandatory": "No",
      "Role": "Adverse Event Descriptive Variables",
      "Has No Data": "No"
    },
    {
      "Order": "96",
      "Dataset": "ADAE",
      "Variable": "ASEVN",
      "Label": "Analysis Severity/Intensity (N)",
      "Data Type": "integer",
      "Length": "8",
      "Mandatory": "No",
      "Role": "Adverse Event Descriptive Variables",
      "Has No Data": "No"
    },
    {
      "Order": "97",
      "Dataset": "ADAE",
      "Variable": "AEREL",
      "Label": "Causality",
      "Data Type": "text",
      "Length": "8",
      "Mandatory": "No",
      "Role": "Adverse Event Descriptive Variables",
      "Has No Data": "No"
    },
    {
      "Order": "98",
      "Dataset": "ADAE",
      "Variable": "AREL",
      "Label": "Analysis Causality",
      "Data Type": "text",
      "Length": "8",
      "Mandatory": "No",
      "Role": "Adverse Event Descriptive Variables",
      "Has No Data": "No"
    },
    {
      "Order": "99",
      "Dataset": "ADAE",
      "Variable": "AEACN",
      "Label": "Action Taken with Study Treatment",
      "Data Type": "text",
      "Length": "1",
      "Mandatory": "No",
      "Role": "Adverse Event Descriptive Variables",
      "Has No Data": "No"
    },
    {
      "Order": "100",
      "Dataset": "ADAE",
      "Variable": "AESPID",
      "Label": "Sponsor-Defined Identifier",
      "Data Type": "text",
      "Length": "3",
      "Mandatory": "No",
      "Has No Data": "No"
    },
    {
      "Order": "101",
      "Dataset": "ADAE",
      "Variable": "AEOUT",
      "Label": "Outcome of Adverse Event",
      "Data Type": "text",
      "Length": "26",
      "Mandatory": "No",
      "Has No Data": "No"
    },
    {
      "Order": "102",
      "Dataset": "ADAE",
      "Variable": "AESCAN",
      "Label": "Involves Cancer",
      "Data Type": "text",
      "Length": "1",
      "Mandatory": "No",
      "Has No Data": "No"
    },
    {
      "Order": "103",
      "Dataset": "ADAE",
      "Variable": "AESOD",
      "Label": "Occurred with Overdose",
      "Data Type": "text",
      "Length": "1",
      "Mandatory": "No",
      "Has No Data": "No"
    },
    {
      "Order": "104",
      "Dataset": "ADAE",
      "Variable": "AEDTC",
      "Label": "Date/Time of Collection",
      "Data Type": "datetime",
      "Mandatory": "No",
      "Has No Data": "No"
    },
    {
      "Order": "105",
      "Dataset": "ADAE",
      "Variable": "LDOSEDTM",
      "Label": "End Date/Time of Last Dose",
      "Data Type": "integer",
      "Length": "1",
      "Format": "DATETIME",
      "Mandatory": "No",
      "Has No Data": "No"
    },
    {
      "Order": "106",
      "Dataset": "ADAE",
      "Variable": "DOSEON",
      "Label": "Treatment Dose",
      "Data Type": "integer",
      "Length": "8",
      "Mandatory": "No"
    },
    {
      "Order": "107",
      "Dataset": "ADAE",
      "Variable": "DOSEU",
      "Label": "Treatment Dose Unit",
      "Data Type": "text",
      "Length": "2",
      "Mandatory": "No"
    },
    {
      "Order": "1",
      "Dataset": "ADBCVA_P",
      "Variable": "STUDYID",
      "Label": "Study Identifier",
      "Data Type": "text",
      "Length": "12",
      "Mandatory": "Yes",
      "Role": "Identifier Variables for BDS Datasets",
      "Has No Data": "No"
    },
    {
      "Order": "2",
      "Dataset": "ADBCVA_P",
      "Variable": "USUBJID",
      "Label": "Unique Subject Identifier",
      "Data Type": "text",
      "Length": "11",
      "Mandatory": "Yes",
      "Role": "Identifier Variables for BDS Datasets",
      "Has No Data": "No"
    },
    {
      "Order": "3",
      "Dataset": "ADBCVA_P",
      "Variable": "SUBJID",
      "Label": "Subject Identifier for the Study",
      "Data Type": "text",
      "Length": "4",
      "Mandatory": "No",
      "Role": "Identifier Variables for BDS Datasets",
      "Has No Data": "No"
    },
    {
      "Order": "4",
      "Dataset": "ADBCVA_P",
      "Variable": "SITEID",
      "Label": "Study Site Identifier",
      "Data Type": "text",
      "Length": "3",
      "Mandatory": "No",
      "Role": "Identifier Variables for BDS Datasets",
      "Has No Data": "No"
    },
    {
      "Order": "5",
      "Dataset": "ADBCVA_P",
      "Variable": "COUNTRY",
      "Label": "Country/Region",
      "Data Type": "text",
      "Length": "3",
      "Mandatory": "No",
      "Has No Data": "No"
    },
    {
      "Order": "6",
      "Dataset": "ADBCVA_P",
      "Variable": "DOMAIN",
      "Label": "Domain Abbreviation",
      "Data Type": "text",
      "Length": "2",
      "Mandatory": "No",
      "Has No Data": "No"
    },
    {
      "Order": "7",
      "Dataset": "ADBCVA_P",
      "Variable": "RFSTDTC",
      "Label": "Subject Reference Start Date/Time",
      "Data Type": "datetime",
      "Mandatory": "No",
      "Has No Data": "No"
    },
    {
      "Order": "8",
      "Dataset": "ADBCVA_P",
      "Variable": "RFENDTC",
      "Label": "Subject Reference End Date/Time",
      "Data Type": "datetime",
      "Mandatory": "No",
      "Has No Data": "No"
    },
    {
      "Order": "9",
      "Dataset": "ADBCVA_P",
      "Variable": "RFXSTDTC",
      "Label": "Date/Time of First Study Treatment",
      "Data Type": "datetime",
      "Mandatory": "No",
      "Has No Data": "No"
    },
    {
      "Order": "10",
      "Dataset": "ADBCVA_P",
      "Variable": "RFXENDTC",
      "Label": "Date/Time of Last Study Treatment",
      "Data Type": "datetime",
      "Mandatory": "No",
      "Has No Data": "No"
    },
    {
      "Order": "11",
      "Dataset": "ADBCVA_P",
      "Variable": "RFPENDTC",
      "Label": "Date/Time of End of Participation",
      "Data Type": "datetime",
      "Mandatory": "No",
      "Has No Data": "No"
    },
    {
      "Order": "12",
      "Dataset": "ADBCVA_P",
      "Variable": "SCRFDT",
      "Label": "Screen Failure Date",
      "Data Type": "integer",
      "Length": "8",
      "Format": "DATE",
      "Mandatory": "No",
      "Has No Data": "No"
    },
    {
      "Order": "13",
      "Dataset": "ADBCVA_P",
      "Variable": "FRVDT",
      "Label": "Final Retrieval Visit Date",
      "Data Type": "integer",
      "Length": "8",
      "Format": "DATE",
      "Mandatory": "No",
      "Has No Data": "No"
    },
    {
      "Order": "14",
      "Dataset": "ADBCVA_P",
      "Variable": "DTHDTC",
      "Label": "Date/Time of Death",
      "Data Type": "datetime",
      "Mandatory": "No",
      "Has No Data": "No"
    },
    {
      "Order": "15",
      "Dataset": "ADBCVA_P",
      "Variable": "DTHADY",
      "Label": "Relative Day of Death",
      "Data Type": "integer",
      "Length": "8",
      "Mandatory": "No",
      "Has No Data": "No"
    },
    {
      "Order": "16",
      "Dataset": "ADBCVA_P",
      "Variable": "DTHFL",
      "Label": "Subject Death Flag",
      "Data Type": "text",
      "Length": "1",
      "Mandatory": "No",
      "Has No Data": "No"
    },
    {
      "Order": "17",
      "Dataset": "ADBCVA_P",
      "Variable": "LDDTHELD",
      "Label": "Elapsed Days from Last Dose to Death",
      "Data Type": "integer",
      "Length": "8",
      "Mandatory": "No",
      "Has No Data": "No"
    },
    {
      "Order": "18",
      "Dataset": "ADBCVA_P",
      "Variable": "LDDTHGR1",
      "Label": "Last Dose to Death - Days Elapsed Grp 1",
      "Data Type": "text",
      "Length": "5",
      "Mandatory": "No",
      "Has No Data": "No"
    },
    {
      "Order": "19",
      "Dataset": "ADBCVA_P",
      "Variable": "DTH30FL",
      "Label": "Death Within 30 Days of Last Trt Flag",
      "Data Type": "text",
      "Length": "1",
      "Mandatory": "No",
      "Has No Data": "No"
    },
    {
      "Order": "20",
      "Dataset": "ADBCVA_P",
      "Variable": "DTHA30FL",
      "Label": "Death After 30 Days from Last Trt Flag",
      "Data Type": "text",
      "Length": "1",
      "Mandatory": "No",
      "Has No Data": "No"
    },
    {
      "Order": "21",
      "Dataset": "ADBCVA_P",
      "Variable": "DTHB30FL",
      "Label": "Death Within 30 Days of First Trt Flag",
      "Data Type": "text",
      "Length": "1",
      "Mandatory": "No",
      "Has No Data": "No"
    },
    {
      "Order": "22",
      "Dataset": "ADBCVA_P",
      "Variable": "ASEQ",
      "Label": "Analysis Sequence Number",
      "Data Type": "integer",
      "Length": "8",
      "Mandatory": "No",
      "Role": "Identifier Variables for BDS Datasets",
      "Has No Data": "No"
    },
    {
      "Order": "23",
      "Dataset": "ADBCVA_P",
      "Variable": "REGION1",
      "Label": "Geographic Region 1",
      "Data Type": "text",
      "Length": "2",
      "Mandatory": "No",
      "Has No Data": "No"
    },
    {
      "Order": "24",
      "Dataset": "ADBCVA_P",
      "Variable": "DMDTC",
      "Label": "Date/Time of Collection",
      "Data Type": "datetime",
      "Mandatory": "No",
      "Has No Data": "No"
    },
    {
      "Order": "25",
      "Dataset": "ADBCVA_P",
      "Variable": "DMDY",
      "Label": "Study Day of Collection",
      "Data Type": "integer",
      "Length": "8",
      "Mandatory": "No",
      "Has No Data": "No"
    },
    {
      "Order": "26",
      "Dataset": "ADBCVA_P",
      "Variable": "AGE",
      "Label": "Age",
      "Data Type": "integer",
      "Length": "8",
      "Mandatory": "No",
      "Role": "ADSL Subject Demographics Variables",
      "Has No Data": "No"
    },
    {
      "Order": "27",
      "Dataset": "ADBCVA_P",
      "Variable": "AGEU",
      "Label": "Age Units",
      "Data Type": "text",
      "Length": "5",
      "Mandatory": "No",
      "Role": "ADSL Subject Demographics Variables",
      "Has No Data": "No"
    },
    {
      "Order": "28",
      "Dataset": "ADBCVA_P",
      "Variable": "AGEGR1",
      "Label": "Pooled Age Group 1",
      "Data Type": "integer",
      "Length": "8",
      "Mandatory": "No",
      "Has No Data": "No"
    },
    {
      "Order": "29",
      "Dataset": "ADBCVA_P",
      "Variable": "SEX",
      "Label": "Sex",
      "Data Type": "text",
      "Length": "1",
      "Mandatory": "No",
      "Role": "ADSL Subject Demographics Variables",
      "Has No Data": "No"
    },
    {
      "Order": "30",
      "Dataset": "ADBCVA_P",
      "Variable": "RACE",
      "Label": "Race",
      "Data Type": "text",
      "Length": "32",
      "Mandatory": "No",
      "Role": "ADSL Subject Demographics Variables",
      "Has No Data": "No"
    },
    {
      "Order": "31",
      "Dataset": "ADBCVA_P",
      "Variable": "RACEGR1",
      "Label": "Pooled Race Group 1",
      "Data Type": "text",
      "Length": "9",
      "Mandatory": "No",
      "Has No Data": "No"
    },
    {
      "Order": "32",
      "Dataset": "ADBCVA_P",
      "Variable": "ETHNIC",
      "Label": "Ethnicity",
      "Data Type": "text",
      "Length": "22",
      "Mandatory": "No",
      "Has No Data": "No"
    },
    {
      "Order": "33",
      "Dataset": "ADBCVA_P",
      "Variable": "SAFFL",
      "Label": "Safety Population Flag",
      "Data Type": "text",
      "Length": "1",
      "Mandatory": "No",
      "Role": "ADSL Population Indicator Variables",
      "Has No Data": "No"
    },
    {
      "Order": "34",
      "Dataset": "ADBCVA_P",
      "Variable": "ARM",
      "Label": "Description of Planned Arm",
      "Data Type": "text",
      "Length": "20",
      "Mandatory": "No",
      "Role": "ADSL Treatment Variables",
      "Has No Data": "No"
    },
    {
      "Order": "35",
      "Dataset": "ADBCVA_P",
      "Variable": "ARMCD",
      "Label": "Planned Arm Code",
      "Data Type": "text",
      "Length": "8",
      "Mandatory": "No",
      "Has No Data": "No"
    },
    {
      "Order": "36",
      "Dataset": "ADBCVA_P",
      "Variable": "ACTARM",
      "Label": "Description of Actual Arm",
      "Data Type": "text",
      "Length": "20",
      "Mandatory": "No",
      "Role": "ADSL Treatment Variables",
      "Has No Data": "No"
    },
    {
      "Order": "37",
      "Dataset": "ADBCVA_P",
      "Variable": "ACTARMCD",
      "Label": "Actual Arm Code",
      "Data Type": "text",
      "Length": "8",
      "Mandatory": "No",
      "Has No Data": "No"
    },
    {
      "Order": "38",
      "Dataset": "ADBCVA_P",
      "Variable": "TRT01P",
      "Label": "Planned Treatment for Period 01",
      "Data Type": "text",
      "Length": "20",
      "Mandatory": "No",
      "Has No Data": "No"
    },
    {
      "Order": "39",
      "Dataset": "ADBCVA_P",
      "Variable": "TRT01A",
      "Label": "Actual Treatment for Period 01",
      "Data Type": "text",
      "Length": "20",
      "Mandatory": "No",
      "Has No Data": "No"
    },
    {
      "Order": "40",
      "Dataset": "ADBCVA_P",
      "Variable": "TRTSDT",
      "Label": "Date of First Exposure to Treatment",
      "Data Type": "integer",
      "Length": "8",
      "Format": "DATE",
      "Mandatory": "No",
      "Role": "ADSL Treatment Timing Variables",
      "Has No Data": "No"
    },
    {
      "Order": "41",
      "Dataset": "ADBCVA_P",
      "Variable": "TRTSDTM",
      "Label": "Datetime of First Exposure to Treatment",
      "Data Type": "integer",
      "Length": "8",
      "Format": "DATETIME",
      "Mandatory": "No",
      "Role": "ADSL Treatment Timing Variables",
      "Has No Data": "No"
    },
    {
      "Order": "42",
      "Dataset": "ADBCVA_P",
      "Variable": "TRTSTMF",
      "Label": "Time of First Exposure Imput. Flag",
      "Data Type": "text",
      "Length": "1",
      "Mandatory": "No",
      "Role": "ADSL Treatment Timing Variables",
      "Has No Data": "No"
    },
    {
      "Order": "43",
      "Dataset": "ADBCVA_P",
      "Variable": "TRTEDT",
      "Label": "Date of Last Exposure to Treatment",
      "Data Type": "integer",
      "Length": "8",
      "Format": "DATE",
      "Mandatory": "No",
      "Role": "ADSL Treatment Timing Variables",
      "Has No Data": "No"
    },
    {
      "Order": "44",
      "Dataset": "ADBCVA_P",
      "Variable": "TRTEDTM",
      "Label": "Datetime of Last Exposure to Treatment",
      "Data Type": "integer",
      "Length": "8",
      "Format": "DATETIME",
      "Mandatory": "No",
      "Role": "ADSL Treatment Timing Variables",
      "Has No Data": "No"
    },
    {
      "Order": "45",
      "Dataset": "ADBCVA_P",
      "Variable": "TRTETMF",
      "Label": "Time of Last Exposure Imput. Flag",
      "Data Type": "text",
      "Length": "1",
      "Mandatory": "No",
      "Role": "ADSL Treatment Timing Variables",
      "Has No Data": "No"
    },
    {
      "Order": "46",
      "Dataset": "ADBCVA_P",
      "Variable": "EOSSTT",
      "Label": "End of Study Status",
      "Data Type": "text",
      "Length": "12",
      "Mandatory": "No",
      "Role": "ADSL Subject-Level Trial Experience Variables",
      "Has No Data": "No"
    },
    {
      "Order": "47",
      "Dataset": "ADBCVA_P",
      "Variable": "EOSDT",
      "Label": "End of Study Date",
      "Data Type": "integer",
      "Length": "8",
      "Format": "DATE",
      "Mandatory": "No",
      "Role": "ADSL Subject-Level Trial Experience Variables",
      "Has No Data": "No"
    },
    {
      "Order": "48",
      "Dataset": "ADBCVA_P",
      "Variable": "RFICDTC",
      "Label": "Date/Time of Informed Consent",
      "Data Type": "text",
      "Length": "1",
      "Mandatory": "No",
      "Has No Data": "No"
    },
    {
      "Order": "49",
      "Dataset": "ADBCVA_P",
      "Variable": "RANDDT",
      "Label": "Date of Randomization",
      "Data Type": "integer",
      "Length": "8",
      "Format": "DATE",
      "Mandatory": "No",
      "Role": "ADSL Subject-Level Trial Experience Variables",
      "Has No Data": "No"
    },
    {
      "Order": "50",
      "Dataset": "ADBCVA_P",
      "Variable": "LSTALVDT",
      "Label": "Date Last Known Alive",
      "Data Type": "integer",
      "Length": "8",
      "Format": "DATE",
      "Mandatory": "No",
      "Role": "ADSL Subject-Level Trial Experience Variables",
      "Has No Data": "No"
    },
    {
      "Order": "51",
      "Dataset": "ADBCVA_P",
      "Variable": "TRTDURD",
      "Label": "Total Treatment Duration (Days)",
      "Data Type": "integer",
      "Length": "8",
      "Mandatory": "No",
      "Role": "ADSL Subject-Level Trial Experience Variables",
      "Has No Data": "No"
    },
    {
      "Order": "52",
      "Dataset": "ADBCVA_P",
      "Variable": "DTHDT",
      "Label": "Date of Death",
      "Data Type": "integer",
      "Length": "8",
      "Format": "DATE",
      "Mandatory": "No",
      "Role": "ADSL Subject-Level Trial Experience Variables",
      "Has No Data": "No"
    },
    {
      "Order": "53",
      "Dataset": "ADBCVA_P",
      "Variable": "ADT",
      "Label": "Analysis Date",
      "Data Type": "integer",
      "Length": "8",
      "Format": "DATE",
      "Mandatory": "No",
      "Role": "Timing Variables for BDS Datasets",
      "Has No Data": "No"
    },
    {
      "Order": "54",
      "Dataset": "ADBCVA_P",
      "Variable": "ADY",
      "Label": "Analysis Relative Day",
      "Data Type": "integer",
      "Length": "8",
      "Mandatory": "No",
      "Role": "Timing Variables for BDS Datasets",
      "Has No Data": "No"
    },
    {
      "Order": "55",
      "Dataset": "ADBCVA_P",
      "Variable": "AVISIT",
      "Label": "Analysis Visit",
      "Data Type": "text",
      "Length": "11",
      "Mandatory": "No",
      "Role": "Timing Variables for BDS Datasets",
      "Has No Data": "No"
    },
    {
      "Order": "56",
      "Dataset": "ADBCVA_P",
      "Variable": "AVISITN",
      "Label": "Analysis Visit (N)",
      "Data Type": "integer",
      "Length": "8",
      "Mandatory": "No",
      "Role": "Timing Variables for BDS Datasets",
      "Has No Data": "No"
    },
    {
      "Order": "57",
      "Dataset": "ADBCVA_P",
      "Variable": "ATPT",
      "Label": "Analysis Timepoint",
      "Data Type": "text",
      "Length": "1",
      "Mandatory": "No",
      "Role": "Timing Variables for BDS Datasets",
      "Has No Data": "No"
    },
    {
      "Order": "58",
      "Dataset": "ADBCVA_P",
      "Variable": "ATPTN",
      "Label": "Analysis Timepoint (N)",
      "Data Type": "integer",
      "Length": "8",
      "Mandatory": "No",
      "Role": "Timing Variables for BDS Datasets",
      "Has No Data": "No"
    },
    {
      "Order": "59",
      "Dataset": "ADBCVA_P",
      "Variable": "PARAM",
      "Label": "Parameter",
      "Data Type": "text",
      "Length": "40",
      "Mandatory": "Yes",
      "Role": "Analysis Parameter Variables for BDS Datasets",
      "Has No Data": "No"
    },
    {
      "Order": "60",
      "Dataset": "ADBCVA_P",
      "Variable": "PARAMCD",
      "Label": "Parameter Code",
      "Data Type": "text",
      "Length": "8",
      "Mandatory": "Yes",
      "Role": "Analysis Parameter Variables for BDS Datasets",
      "Has No Data": "No"
    },
    {
      "Order": "61",
      "Dataset": "ADBCVA_P",
      "Variable": "AVAL",
      "Label": "Analysis Value",
      "Data Type": "float",
      "Length": "4",
      "Significant Digits": "2",
      "Mandatory": "No",
      "Role": "Analysis Parameter Variables for BDS Datasets",
      "Has No Data": "No"
    },
    {
      "Order": "62",
      "Dataset": "ADBCVA_P",
      "Variable": "AVALC",
      "Label": "Analysis Value (C)",
      "Data Type": "text",
      "Length": "19",
      "Mandatory": "No",
      "Role": "Analysis Parameter Variables for BDS Datasets",
      "Has No Data": "No"
    },
    {
      "Order": "63",
      "Dataset": "ADBCVA_P",
      "Variable": "AVALU",
      "Label": "Analysis Value Unit",
      "Data Type": "text",
      "Length": "7",
      "Mandatory": "No",
      "Has No Data": "No"
    },
    {
      "Order": "64",
      "Dataset": "ADBCVA_P",
      "Variable": "AVALCAT1",
      "Label": "Analysis Value Category 1",
      "Data Type": "text",
      "Length": "8",
      "Mandatory": "No",
      "Has No Data": "No"
    },
    {
      "Order": "65",
      "Dataset": "ADBCVA_P",
      "Variable": "AVALCA1N",
      "Label": "Analysis Value Category 1 (N)",
      "Data Type": "integer",
      "Length": "8",
      "Mandatory": "No",
      "Has No Data": "No"
    },
    {
      "Order": "66",
      "Dataset": "ADBCVA_P",
      "Variable": "BASE",
      "Label": "Baseline Value",
      "Data Type": "float",
      "Length": "4",
      "Significant Digits": "2",
      "Mandatory": "No",
      "Role": "Analysis Parameter Variables for BDS Datasets",
      "Has No Data": "No"
    },
    {
      "Order": "67",
      "Dataset": "ADBCVA_P",
      "Variable": "BASEC",
      "Label": "Baseline Value (C)",
      "Data Type": "text",
      "Length": "19",
      "Mandatory": "No",
      "Role": "Analysis Parameter Variables for BDS Datasets",
      "Has No Data": "No"
    },
    {
      "Order": "68",
      "Dataset": "ADBCVA_P",
      "Variable": "BASETYPE",
      "Label": "Baseline Type",
      "Data Type": "text",
      "Length": "4",
      "Mandatory": "No",
      "Role": "Analysis Parameter Variables for BDS Datasets",
      "Has No Data": "No"
    },
    {
      "Order": "69",
      "Dataset": "ADBCVA_P",
      "Variable": "CHG",
      "Label": "Change from Baseline",
      "Data Type": "float",
      "Length": "4",
      "Significant Digits": "2",
      "Mandatory": "No",
      "Role": "Analysis Parameter Variables for BDS Datasets",
      "Has No Data": "No"
    },
    {
      "Order": "70",
      "Dataset": "ADBCVA_P",
      "Variable": "PCHG",
      "Label": "Percent Change from Baseline",
      "Data Type": "float",
      "Length": "13",
      "Significant Digits": "8",
      "Mandatory": "No",
      "Role": "Analysis Parameter Variables for BDS Datasets",
      "Has No Data": "No"
    },
    {
      "Order": "71",
      "Dataset": "ADBCVA_P",
      "Variable": "CRIT1",
      "Label": "Analysis Criterion 1",
      "Data Type": "text",
      "Length": "13",
      "Mandatory": "No",
      "Has No Data": "No"
    },
    {
      "Order": "72",
      "Dataset": "ADBCVA_P",
      "Variable": "CRIT1FL",
      "Label": "Criterion 1 Evaluation Result Flag",
      "Data Type": "text",
      "Length": "1",
      "Mandatory": "No",
      "Has No Data": "No"
    },
    {
      "Order": "73",
      "Dataset": "ADBCVA_P",
      "Variable": "CRIT2",
      "Label": "Analysis Criterion 2",
      "Data Type": "text",
      "Length": "15",
      "Mandatory": "No",
      "Has No Data": "No"
    },
    {
      "Order": "74",
      "Dataset": "ADBCVA_P",
      "Variable": "CRIT2FL",
      "Label": "Criterion 2 Evaluation Result Flag",
      "Data Type": "text",
      "Length": "1",
      "Mandatory": "No",
      "Has No Data": "No"
    },
    {
      "Order": "75",
      "Dataset": "ADBCVA_P",
      "Variable": "CRIT3",
      "Label": "Analysis Criterion 3",
      "Data Type": "text",
      "Length": "15",
      "Mandatory": "No",
      "Has No Data": "No"
    },
    {
      "Order": "76",
      "Dataset": "ADBCVA_P",
      "Variable": "CRIT3FL",
      "Label": "Criterion 3 Evaluation Result Flag",
      "Data Type": "text",
      "Length": "1",
      "Mandatory": "No",
      "Has No Data": "No"
    },
    {
      "Order": "77",
      "Dataset": "ADBCVA_P",
      "Variable": "CRIT4",
      "Label": "Analysis Criterion 4",
      "Data Type": "text",
      "Length": "10",
      "Mandatory": "No",
      "Has No Data": "No"
    },
    {
      "Order": "78",
      "Dataset": "ADBCVA_P",
      "Variable": "CRIT4FL",
      "Label": "Criterion 4 Evaluation Result Flag",
      "Data Type": "text",
      "Length": "1",
      "Mandatory": "No",
      "Has No Data": "No"
    },
    {
      "Order": "79",
      "Dataset": "ADBCVA_P",
      "Variable": "CRIT5",
      "Label": "Analysis Criterion 5",
      "Data Type": "text",
      "Length": "8",
      "Mandatory": "No",
      "Has No Data": "No"
    },
    {
      "Order": "80",
      "Dataset": "ADBCVA_P",
      "Variable": "CRIT5FL",
      "Label": "Criterion 5 Evaluation Result Flag",
      "Data Type": "text",
      "Length": "1",
      "Mandatory": "No",
      "Has No Data": "No"
    },
    {
      "Order": "81",
      "Dataset": "ADBCVA_P",
      "Variable": "CRIT6",
      "Label": "Analysis Criterion 6",
      "Data Type": "text",
      "Length": "9",
      "Mandatory": "No",
      "Has No Data": "No"
    },
    {
      "Order": "82",
      "Dataset": "ADBCVA_P",
      "Variable": "CRIT6FL",
      "Label": "Criterion 6 Evaluation Result Flag",
      "Data Type": "text",
      "Length": "1",
      "Mandatory": "No",
      "Has No Data": "No"
    },
    {
      "Order": "83",
      "Dataset": "ADBCVA_P",
      "Variable": "CRIT7",
      "Label": "Analysis Criterion 7",
      "Data Type": "text",
      "Length": "10",
      "Mandatory": "No",
      "Has No Data": "No"
    },
    {
      "Order": "84",
      "Dataset": "ADBCVA_P",
      "Variable": "CRIT7FL",
      "Label": "Criterion 7 Evaluation Result Flag",
      "Data Type": "text",
      "Length": "1",
      "Mandatory": "No",
      "Has No Data": "No"
    },
    {
      "Order": "85",
      "Dataset": "ADBCVA_P",
      "Variable": "CRIT8",
      "Label": "Analysis Criterion 8",
      "Data Type": "text",
      "Length": "9",
      "Mandatory": "No",
      "Has No Data": "No"
    },
    {
      "Order": "86",
      "Dataset": "ADBCVA_P",
      "Variable": "CRIT8FL",
      "Label": "Criterion 8 Evaluation Result Flag",
      "Data Type": "text",
      "Length": "1",
      "Mandatory": "No",
      "Has No Data": "No"
    },
    {
      "Order": "87",
      "Dataset": "ADBCVA_P",
      "Variable": "DTYPE",
      "Label": "Derivation Type",
      "Data Type": "text",
      "Length": "1",
      "Mandatory": "No",
      "Role": "Analysis Descriptor Variables for BDS Datasets",
      "Has No Data": "No"
    },
    {
      "Order": "88",
      "Dataset": "ADBCVA_P",
      "Variable": "ABLFL",
      "Label": "Baseline Record Flag",
      "Data Type": "text",
      "Length": "1",
      "Mandatory": "No",
      "Role": "Flag Variables for BDS Datasets",
      "Has No Data": "No"
    },
    {
      "Order": "89",
      "Dataset": "ADBCVA_P",
      "Variable": "ANL01FL",
      "Label": "Analysis Flag 01",
      "Data Type": "text",
      "Length": "1",
      "Mandatory": "No",
      "Has No Data": "No"
    },
    {
      "Order": "90",
      "Dataset": "ADBCVA_P",
      "Variable": "ANL02FL",
      "Label": "Analysis Flag 02",
      "Data Type": "text",
      "Length": "1",
      "Mandatory": "No",
      "Has No Data": "No"
    },
    {
      "Order": "91",
      "Dataset": "ADBCVA_P",
      "Variable": "ONTRTFL",
      "Label": "On Treatment Record Flag",
      "Data Type": "text",
      "Length": "1",
      "Mandatory": "No",
      "Role": "Flag Variables for BDS Datasets",
      "Has No Data": "No"
    },
    {
      "Order": "92",
      "Dataset": "ADBCVA_P",
      "Variable": "OESEQ",
      "Label": "Sequence Number",
      "Data Type": "integer",
      "Length": "8",
      "Mandatory": "No",
      "Has No Data": "No"
    },
    {
      "Order": "93",
      "Dataset": "ADBCVA_P",
      "Variable": "OECAT",
      "Label": "Category for Ophthalmic Test or Exam",
      "Data Type": "text",
      "Length": "28",
      "Mandatory": "No",
      "Has No Data": "No"
    },
    {
      "Order": "94",
      "Dataset": "ADBCVA_P",
      "Variable": "OESCAT",
      "Label": "Subcategory for Ophthalmic Test or Exam",
      "Data Type": "text",
      "Length": "18",
      "Mandatory": "No",
      "Has No Data": "No"
    },
    {
      "Order": "95",
      "Dataset": "ADBCVA_P",
      "Variable": "OEDTC",
      "Label": "Date/Time of Collection",
      "Data Type": "datetime",
      "Mandatory": "No",
      "Has No Data": "No"
    },
    {
      "Order": "96",
      "Dataset": "ADBCVA_P",
      "Variable": "VISIT",
      "Label": "Visit Name",
      "Data Type": "text",
      "Length": "11",
      "Mandatory": "No",
      "Has No Data": "No"
    },
    {
      "Order": "97",
      "Dataset": "ADBCVA_P",
      "Variable": "VISITNUM",
      "Label": "Visit Number",
      "Data Type": "float",
      "Length": "3",
      "Significant Digits": "1",
      "Mandatory": "No",
      "Has No Data": "No"
    },
    {
      "Order": "98",
      "Dataset": "ADBCVA_P",
      "Variable": "VISITDY",
      "Label": "Planned Study Day of Visit",
      "Data Type": "integer",
      "Length": "8",
      "Mandatory": "No",
      "Has No Data": "No"
    },
    {
      "Order": "99",
      "Dataset": "ADBCVA_P",
      "Variable": "OESTRESN",
      "Label": "Numeric Result/Finding in Standard Units",
      "Data Type": "integer",
      "Length": "8",
      "Mandatory": "No",
      "Has No Data": "No"
    },
    {
      "Order": "100",
      "Dataset": "ADBCVA_P",
      "Variable": "OESTRESC",
      "Label": "Character Result/Finding in Std Format",
      "Data Type": "text",
      "Length": "3",
      "Mandatory": "No",
      "Has No Data": "No"
    },
    {
      "Order": "101",
      "Dataset": "ADBCVA_P",
      "Variable": "OEORRES",
      "Label": "Result or Finding in Original Units",
      "Data Type": "text",
      "Length": "3",
      "Mandatory": "No",
      "Has No Data": "No"
    },
    {
      "Order": "102",
      "Dataset": "ADBCVA_P",
      "Variable": "OETEST",
      "Label": "Name of Ophthalmic Test or Exam",
      "Data Type": "text",
      "Length": "19",
      "Mandatory": "No",
      "Has No Data": "No"
    },
    {
      "Order": "103",
      "Dataset": "ADBCVA_P",
      "Variable": "OETESTCD",
      "Label": "Short Name of Ophthalmic Test or Exam",
      "Data Type": "text",
      "Length": "8",
      "Mandatory": "No",
      "Has No Data": "No"
    },
    {
      "Order": "104",
      "Dataset": "ADBCVA_P",
      "Variable": "OETSTDTL",
      "Label": "Ophthalmic Test or Exam Detail",
      "Data Type": "text",
      "Length": "1",
      "Mandatory": "No",
      "Has No Data": "No"
    },
    {
      "Order": "105",
      "Dataset": "ADBCVA_P",
      "Variable": "OELAT",
      "Label": "Laterality",
      "Data Type": "text",
      "Length": "5",
      "Mandatory": "No",
      "Has No Data": "No"
    },
    {
      "Order": "106",
      "Dataset": "ADBCVA_P",
      "Variable": "OELOC",
      "Label": "Location Used for the Measurement",
      "Data Type": "text",
      "Length": "3",
      "Mandatory": "No",
      "Has No Data": "No"
    },
    {
      "Order": "107",
      "Dataset": "ADBCVA_P",
      "Variable": "OEDY",
      "Label": "Study Day of Visit/Collection/Exam",
      "Data Type": "integer",
      "Length": "8",
      "Mandatory": "No",
      "Has No Data": "No"
    },
    {
      "Order": "108",
      "Dataset": "ADBCVA_P",
      "Variable": "OEMETHOD",
      "Label": "Method of Test or Examination",
      "Data Type": "text",
      "Length": "15",
      "Mandatory": "No",
      "Has No Data": "No"
    },
    {
      "Order": "109",
      "Dataset": "ADBCVA_P",
      "Variable": "OEORRESU",
      "Label": "Original Units",
      "Data Type": "text",
      "Length": "1",
      "Mandatory": "No",
      "Has No Data": "No"
    },
    {
      "Order": "110",
      "Dataset": "ADBCVA_P",
      "Variable": "OESTRESU",
      "Label": "Standard Units",
      "Data Type": "text",
      "Length": "1",
      "Mandatory": "No",
      "Has No Data": "No"
    },
    {
      "Order": "111",
      "Dataset": "ADBCVA_P",
      "Variable": "OESTAT",
      "Label": "Completion Status",
      "Data Type": "text",
      "Length": "1",
      "Mandatory": "No",
      "Has No Data": "No"
    },
    {
      "Order": "112",
      "Dataset": "ADBCVA_P",
      "Variable": "OETPT",
      "Label": "Planned Time Point Name",
      "Data Type": "text",
      "Length": "1",
      "Mandatory": "No",
      "Has No Data": "No"
    },
    {
      "Order": "113",
      "Dataset": "ADBCVA_P",
      "Variable": "OETPTNUM",
      "Label": "Planned Time Point Number",
      "Data Type": "integer",
      "Length": "8",
      "Mandatory": "No",
      "Has No Data": "No"
    },
    {
      "Order": "114",
      "Dataset": "ADBCVA_P",
      "Variable": "STUDYEYE",
      "Label": "Study Eye Location",
      "Data Type": "text",
      "Length": "5",
      "Mandatory": "No",
      "Has No Data": "No"
    },
    {
      "Order": "115",
      "Dataset": "ADBCVA_P",
      "Variable": "AFEYE",
      "Label": "Affected Eye",
      "Data Type": "text",
      "Length": "10",
      "Mandatory": "No",
      "Has No Data": "No"
    },
    {
      "Order": "116",
      "Dataset": "ADBCVA_P",
      "Variable": "WORS01FL",
      "Label": "Worst Post Baseline Obs",
      "Data Type": "text",
      "Length": "1",
      "Mandatory": "No",
      "Has No Data": "No"
    },
    {
      "Order": "1",
      "Dataset": "ADCE_V",
      "Variable": "STUDYID",
      "Label": "Study Identifier",
      "Data Type": "text",
      "Length": "3",
      "Mandatory": "No",
      "Has No Data": "No"
    },
    {
      "Order": "2",
      "Dataset": "ADCE_V",
      "Variable": "USUBJID",
      "Label": "Unique Subject Identifier",
      "Data Type": "text",
      "Length": "8",
      "Mandatory": "No",
      "Has No Data": "No"
    },
    {
      "Order": "3",
      "Dataset": "ADCE_V",
      "Variable": "SUBJID",
      "Label": "Subject Identifier for the Study",
      "Data Type": "text",
      "Length": "4",
      "Mandatory": "No",
      "Has No Data": "No"
    },
    {
      "Order": "4",
      "Dataset": "ADCE_V",
      "Variable": "SITEID",
      "Label": "Study Site Identifier",
      "Data Type": "text",
      "Length": "4",
      "Mandatory": "No",
      "Has No Data": "No"
    },
    {
      "Order": "5",
      "Dataset": "ADCE_V",
      "Variable": "COUNTRY",
      "Label": "Country",
      "Data Type": "text",
      "Length": "3",
      "Mandatory": "No",
      "Has No Data": "No"
    },
    {
      "Order": "6",
      "Dataset": "ADCE_V",
      "Variable": "DOMAIN",
      "Label": "Domain Abbreviation",
      "Data Type": "text",
      "Length": "2",
      "Mandatory": "No",
      "Has No Data": "No"
    },
    {
      "Order": "7",
      "Dataset": "ADCE_V",
      "Variable": "ASEQ",
      "Label": "Analysis Sequence Number",
      "Data Type": "integer",
      "Length": "8",
      "Mandatory": "No",
      "Has No Data": "No"
    },
    {
      "Order": "8",
      "Dataset": "ADCE_V",
      "Variable": "AGE",
      "Label": "Age",
      "Data Type": "integer",
      "Length": "8",
      "Mandatory": "No",
      "Has No Data": "No"
    },
    {
      "Order": "9",
      "Dataset": "ADCE_V",
      "Variable": "AGEU",
      "Label": "Age Units",
      "Data Type": "text",
      "Length": "5",
      "Mandatory": "No",
      "Has No Data": "No"
    },
    {
      "Order": "10",
      "Dataset": "ADCE_V",
      "Variable": "SEX",
      "Label": "Sex",
      "Data Type": "text",
      "Length": "1",
      "Mandatory": "No",
      "Has No Data": "No"
    },
    {
      "Order": "11",
      "Dataset": "ADCE_V",
      "Variable": "RACE",
      "Label": "Race",
      "Data Type": "text",
      "Length": "25",
      "Mandatory": "No",
      "Has No Data": "No"
    },
    {
      "Order": "12",
      "Dataset": "ADCE_V",
      "Variable": "ETHNIC",
      "Label": "Ethnicity",
      "Data Type": "text",
      "Length": "22",
      "Mandatory": "No",
      "Has No Data": "No"
    },
    {
      "Order": "13",
      "Dataset": "ADCE_V",
      "Variable": "TRT01P",
      "Label": "Planned Treatment for Period 01",
      "Data Type": "text",
      "Length": "9",
      "Mandatory": "No",
      "Has No Data": "No"
    },
    {
      "Order": "14",
      "Dataset": "ADCE_V",
      "Variable": "TRT01A",
      "Label": "Actual Treatment for Period 01",
      "Data Type": "text",
      "Length": "9",
      "Mandatory": "No",
      "Has No Data": "No"
    },
    {
      "Order": "15",
      "Dataset": "ADCE_V",
      "Variable": "TRTSDT",
      "Label": "Date of First Exposure to Treatment",
      "Data Type": "integer",
      "Length": "8",
      "Format": "DATE",
      "Mandatory": "No",
      "Has No Data": "No"
    },
    {
      "Order": "16",
      "Dataset": "ADCE_V",
      "Variable": "TRTEDT",
      "Label": "Date of Last Exposure to Treatment",
      "Data Type": "integer",
      "Length": "8",
      "Format": "DATE",
      "Mandatory": "No",
      "Has No Data": "No"
    },
    {
      "Order": "17",
      "Dataset": "ADCE_V",
      "Variable": "APERSDT",
      "Label": "Period Start Date",
      "Data Type": "integer",
      "Length": "8",
      "Format": "DATE",
      "Mandatory": "No",
      "Has No Data": "No"
    },
    {
      "Order": "18",
      "Dataset": "ADCE_V",
      "Variable": "APEREDT",
      "Label": "Period End Date",
      "Data Type": "integer",
      "Length": "8",
      "Format": "DATE",
      "Mandatory": "No",
      "Has No Data": "No"
    },
    {
      "Order": "19",
      "Dataset": "ADCE_V",
      "Variable": "APERSTDY",
      "Label": "Analysis Sub-period Start Relative Day",
      "Data Type": "integer",
      "Length": "8",
      "Mandatory": "No",
      "Has No Data": "No"
    },
    {
      "Order": "20",
      "Dataset": "ADCE_V",
      "Variable": "CESEQ",
      "Label": "Sequence Number",
      "Data Type": "integer",
      "Length": "8",
      "Mandatory": "No",
      "Has No Data": "No"
    },
    {
      "Order": "21",
      "Dataset": "ADCE_V",
      "Variable": "CETERM",
      "Label": "Reported Term for the Clinical Event",
      "Data Type": "text",
      "Length": "27",
      "Mandatory": "No",
      "Has No Data": "No"
    },
    {
      "Order": "22",
      "Dataset": "ADCE_V",
      "Variable": "CEDECOD",
      "Label": "Dictionary-Derived Term",
      "Data Type": "text",
      "Length": "19",
      "Mandatory": "No",
      "Has No Data": "No"
    },
    {
      "Order": "23",
      "Dataset": "ADCE_V",
      "Variable": "CECAT",
      "Label": "Category for the Clinical Event",
      "Data Type": "text",
      "Length": "14",
      "Mandatory": "No",
      "Has No Data": "No"
    },
    {
      "Order": "24",
      "Dataset": "ADCE_V",
      "Variable": "CESCAT",
      "Label": "Subcategory for the Clinical Event",
      "Data Type": "text",
      "Length": "19",
      "Mandatory": "No",
      "Has No Data": "No"
    },
    {
      "Order": "25",
      "Dataset": "ADCE_V",
      "Variable": "CESTDTC",
      "Label": "Start Date/Time of Clinical Event",
      "Data Type": "datetime",
      "Mandatory": "No",
      "Has No Data": "No"
    },
    {
      "Order": "26",
      "Dataset": "ADCE_V",
      "Variable": "ASTDT",
      "Label": "Analysis Start Date",
      "Data Type": "integer",
      "Length": "8",
      "Format": "DATE",
      "Mandatory": "No",
      "Has No Data": "No"
    },
    {
      "Order": "27",
      "Dataset": "ADCE_V",
      "Variable": "CEENDTC",
      "Label": "End Date/Time of Clinical Event",
      "Data Type": "datetime",
      "Mandatory": "No",
      "Has No Data": "No"
    },
    {
      "Order": "28",
      "Dataset": "ADCE_V",
      "Variable": "AENDT",
      "Label": "Analysis End Date",
      "Data Type": "integer",
      "Length": "8",
      "Format": "DATE",
      "Mandatory": "No",
      "Has No Data": "No"
    },
    {
      "Order": "29",
      "Dataset": "ADCE_V",
      "Variable": "ASTDY",
      "Label": "Analysis Start Relative Day",
      "Data Type": "integer",
      "Length": "8",
      "Mandatory": "No",
      "Has No Data": "No"
    },
    {
      "Order": "30",
      "Dataset": "ADCE_V",
      "Variable": "AENDY",
      "Label": "Analysis End Relative Day",
      "Data Type": "integer",
      "Length": "8",
      "Mandatory": "No",
      "Has No Data": "No"
    },
    {
      "Order": "31",
      "Dataset": "ADCE_V",
      "Variable": "ADURN",
      "Label": "Analysis Duration (N)",
      "Data Type": "integer",
      "Length": "8",
      "Mandatory": "No",
      "Has No Data": "No"
    },
    {
      "Order": "32",
      "Dataset": "ADCE_V",
      "Variable": "ADURU",
      "Label": "Analysis Duration Units",
      "Data Type": "text",
      "Length": "4",
      "Mandatory": "No",
      "Has No Data": "No"
    },
    {
      "Order": "33",
      "Dataset": "ADCE_V",
      "Variable": "CEDUR",
      "Label": "Duration of Clinical Event",
      "Data Type": "text",
      "Length": "3",
      "Mandatory": "No",
      "Has No Data": "No"
    },
    {
      "Order": "34",
      "Dataset": "ADCE_V",
      "Variable": "APERIOD",
      "Label": "Period",
      "Data Type": "integer",
      "Length": "8",
      "Mandatory": "No",
      "Has No Data": "No"
    },
    {
      "Order": "35",
      "Dataset": "ADCE_V",
      "Variable": "CEOCCUR",
      "Label": "Clinical Event Occurrence",
      "Data Type": "text",
      "Length": "1",
      "Mandatory": "No",
      "Has No Data": "No"
    },
    {
      "Order": "36",
      "Dataset": "ADCE_V",
      "Variable": "CEPRESP",
      "Label": "Clinical Event Pre-specified",
      "Data Type": "text",
      "Length": "1",
      "Mandatory": "No",
      "Has No Data": "No"
    },
    {
      "Order": "37",
      "Dataset": "ADCE_V",
      "Variable": "AOCC01FL",
      "Label": "Event Occurrence Flag",
      "Data Type": "text",
      "Length": "1",
      "Mandatory": "No",
      "Has No Data": "No"
    },
    {
      "Order": "38",
      "Dataset": "ADCE_V",
      "Variable": "ASEV",
      "Label": "Analysis Severity/Intensity",
      "Data Type": "text",
      "Length": "8",
      "Mandatory": "No",
      "Has No Data": "No"
    },
    {
      "Order": "39",
      "Dataset": "ADCE_V",
      "Variable": "ASEVN",
      "Label": "Analysis Severity/Intensity (N)",
      "Data Type": "integer",
      "Length": "8",
      "Mandatory": "No",
      "Has No Data": "No"
    },
    {
      "Order": "40",
      "Dataset": "ADCE_V",
      "Variable": "AREL",
      "Label": "Analysis Causality",
      "Data Type": "text",
      "Length": "7",
      "Mandatory": "No",
      "Has No Data": "No"
    },
    {
      "Order": "41",
      "Dataset": "ADCE_V",
      "Variable": "CELNKID",
      "Label": "Link ID",
      "Data Type": "text",
      "Length": "56",
      "Mandatory": "No",
      "Has No Data": "No"
    },
    {
      "Order": "42",
      "Dataset": "ADCE_V",
      "Variable": "CELNKGRP",
      "Label": "Link Group ID",
      "Data Type": "text",
      "Length": "43",
      "Mandatory": "No",
      "Has No Data": "No"
    },
    {
      "Order": "43",
      "Dataset": "ADCE_V",
      "Variable": "CELAT",
      "Label": "Laterality",
      "Data Type": "text",
      "Length": "4",
      "Mandatory": "No",
      "Has No Data": "No"
    },
    {
      "Order": "44",
      "Dataset": "ADCE_V",
      "Variable": "CELOC",
      "Label": "Location of Event",
      "Data Type": "text",
      "Length": "14",
      "Mandatory": "No",
      "Has No Data": "No"
    },
    {
      "Order": "45",
      "Dataset": "ADCE_V",
      "Variable": "CESEV",
      "Label": "Severity/Intensity",
      "Data Type": "text",
      "Length": "8",
      "Mandatory": "No",
      "Has No Data": "No"
    },
    {
      "Order": "46",
      "Dataset": "ADCE_V",
      "Variable": "CEREL",
      "Label": "Causality",
      "Data Type": "text",
      "Length": "7",
      "Mandatory": "No",
      "Has No Data": "No"
    },
    {
      "Order": "47",
      "Dataset": "ADCE_V",
      "Variable": "CEOUT",
      "Label": "Outcome of Event",
      "Data Type": "text",
      "Length": "18",
      "Mandatory": "No",
      "Has No Data": "No"
    },
    {
      "Order": "48",
      "Dataset": "ADCE_V",
      "Variable": "EPOCH",
      "Label": "Epoch",
      "Data Type": "text",
      "Length": "13",
      "Mandatory": "No",
      "Has No Data": "No"
    },
    {
      "Order": "49",
      "Dataset": "ADCE_V",
      "Variable": "CEDTC",
      "Label": "Date/Time of Event Collection",
      "Data Type": "datetime",
      "Mandatory": "No",
      "Has No Data": "No"
    },
    {
      "Order": "50",
      "Dataset": "ADCE_V",
      "Variable": "CETPT",
      "Label": "Planned Time Point Name",
      "Data Type": "text",
      "Length": "5",
      "Mandatory": "No",
      "Has No Data": "No"
    },
    {
      "Order": "51",
      "Dataset": "ADCE_V",
      "Variable": "CETPTNUM",
      "Label": "Planned Time Point Number",
      "Data Type": "integer",
      "Length": "8",
      "Mandatory": "No",
      "Has No Data": "No"
    },
    {
      "Order": "52",
      "Dataset": "ADCE_V",
      "Variable": "CETPTREF",
      "Label": "Time Point Reference",
      "Data Type": "text",
      "Length": "13",
      "Mandatory": "No",
      "Has No Data": "No"
    },
    {
      "Order": "53",
      "Dataset": "ADCE_V",
      "Variable": "CERFTDTC",
      "Label": "Date/Time of Reference Time Point",
      "Data Type": "datetime",
      "Mandatory": "No",
      "Has No Data": "No"
    },
    {
      "Order": "54",
      "Dataset": "ADCE_V",
      "Variable": "CEEVINTX",
      "Label": "Evaluation Interval Text",
      "Data Type": "text",
      "Length": "17",
      "Mandatory": "No",
      "Has No Data": "No"
    },
    {
      "Order": "55",
      "Dataset": "ADCE_V",
      "Variable": "CESTAT",
      "Label": "Completion Status",
      "Data Type": "text",
      "Length": "8",
      "Mandatory": "No",
      "Has No Data": "No"
    },
    {
      "Order": "56",
      "Dataset": "ADCE_V",
      "Variable": "CEREASND",
      "Label": "Reason Clinical Event Not Collected",
      "Data Type": "text",
      "Length": "41",
      "Mandatory": "No",
      "Has No Data": "No"
    },
    {
      "Order": "1",
      "Dataset": "ADCM",
      "Variable": "STUDYID",
      "Label": "Study Identifier",
      "Data Type": "text",
      "Length": "12",
      "Mandatory": "No",
      "Has No Data": "No"
    },
    {
      "Order": "2",
      "Dataset": "ADCM",
      "Variable": "USUBJID",
      "Label": "Unique Subject Identifier",
      "Data Type": "text",
      "Length": "11",
      "Mandatory": "No",
      "Has No Data": "No"
    },
    {
      "Order": "3",
      "Dataset": "ADCM",
      "Variable": "SUBJID",
      "Label": "Subject Identifier for the Study",
      "Data Type": "text",
      "Length": "4",
      "Mandatory": "No",
      "Has No Data": "No"
    },
    {
      "Order": "4",
      "Dataset": "ADCM",
      "Variable": "SITEID",
      "Label": "Study Site Identifier",
      "Data Type": "text",
      "Length": "3",
      "Mandatory": "No",
      "Has No Data": "No"
    },
    {
      "Order": "5",
      "Dataset": "ADCM",
      "Variable": "COUNTRY",
      "Label": "Country",
      "Data Type": "text",
      "Length": "3",
      "Mandatory": "No",
      "Has No Data": "No"
    },
    {
      "Order": "6",
      "Dataset": "ADCM",
      "Variable": "DOMAIN",
      "Label": "Domain Abbreviation",
      "Data Type": "text",
      "Length": "2",
      "Mandatory": "No",
      "Has No Data": "No"
    },
    {
      "Order": "7",
      "Dataset": "ADCM",
      "Variable": "RFSTDTC",
      "Label": "Subject Reference Start Date/Time",
      "Data Type": "datetime",
      "Mandatory": "No",
      "Has No Data": "No"
    },
    {
      "Order": "8",
      "Dataset": "ADCM",
      "Variable": "RFENDTC",
      "Label": "Subject Reference End Date/Time",
      "Data Type": "datetime",
      "Mandatory": "No",
      "Has No Data": "No"
    },
    {
      "Order": "9",
      "Dataset": "ADCM",
      "Variable": "RFXSTDTC",
      "Label": "Date/Time of First Study Treatment",
      "Data Type": "datetime",
      "Mandatory": "No",
      "Has No Data": "No"
    },
    {
      "Order": "10",
      "Dataset": "ADCM",
      "Variable": "RFXENDTC",
      "Label": "Date/Time of Last Study Treatment",
      "Data Type": "datetime",
      "Mandatory": "No",
      "Has No Data": "No"
    },
    {
      "Order": "11",
      "Dataset": "ADCM",
      "Variable": "RFPENDTC",
      "Label": "Date/Time of End of Participation",
      "Data Type": "datetime",
      "Mandatory": "No",
      "Has No Data": "No"
    },
    {
      "Order": "12",
      "Dataset": "ADCM",
      "Variable": "SCRFDT",
      "Label": "Screen Failure Date",
      "Data Type": "integer",
      "Length": "8",
      "Format": "DATE",
      "Mandatory": "No",
      "Has No Data": "No"
    },
    {
      "Order": "13",
      "Dataset": "ADCM",
      "Variable": "FRVDT",
      "Label": "Final Retrieval Visit Date",
      "Data Type": "integer",
      "Length": "8",
      "Format": "DATE",
      "Mandatory": "No",
      "Has No Data": "No"
    },
    {
      "Order": "14",
      "Dataset": "ADCM",
      "Variable": "DTHDTC",
      "Label": "Date/Time of Death",
      "Data Type": "datetime",
      "Mandatory": "No",
      "Has No Data": "No"
    },
    {
      "Order": "15",
      "Dataset": "ADCM",
      "Variable": "DTHADY",
      "Label": "Relative Day of Death",
      "Data Type": "integer",
      "Length": "8",
      "Mandatory": "No",
      "Has No Data": "No"
    },
    {
      "Order": "16",
      "Dataset": "ADCM",
      "Variable": "DTHFL",
      "Label": "Subject Death Flag",
      "Data Type": "text",
      "Length": "1",
      "Mandatory": "No",
      "Has No Data": "No"
    },
    {
      "Order": "17",
      "Dataset": "ADCM",
      "Variable": "LDDTHELD",
      "Label": "Elapsed Days from Last Dose to Death",
      "Data Type": "integer",
      "Length": "8",
      "Mandatory": "No",
      "Has No Data": "No"
    },
    {
      "Order": "18",
      "Dataset": "ADCM",
      "Variable": "LDDTHGR1",
      "Label": "Last Dose to Death - Days Elapsed Grp 1",
      "Data Type": "text",
      "Length": "5",
      "Mandatory": "No",
      "Has No Data": "No"
    },
    {
      "Order": "19",
      "Dataset": "ADCM",
      "Variable": "DTH30FL",
      "Label": "Death Within 30 Days of Last Trt Flag",
      "Data Type": "text",
      "Length": "1",
      "Mandatory": "No",
      "Has No Data": "No"
    },
    {
      "Order": "20",
      "Dataset": "ADCM",
      "Variable": "DTHA30FL",
      "Label": "Death After 30 Days from Last Trt Flag",
      "Data Type": "text",
      "Length": "1",
      "Mandatory": "No",
      "Has No Data": "No"
    },
    {
      "Order": "21",
      "Dataset": "ADCM",
      "Variable": "DTHDOM",
      "Label": "Domain for Date of Death Collection",
      "Data Type": "text",
      "Length": "200",
      "Mandatory": "No",
      "Has No Data": "No"
    },
    {
      "Order": "22",
      "Dataset": "ADCM",
      "Variable": "DTHB30FL",
      "Label": "Death Within 30 Days of First Trt Flag",
      "Data Type": "text",
      "Length": "1",
      "Mandatory": "No",
      "Has No Data": "No"
    },
    {
      "Order": "23",
      "Dataset": "ADCM",
      "Variable": "REGION1",
      "Label": "Geographic Region 1",
      "Data Type": "text",
      "Length": "2",
      "Mandatory": "No",
      "Has No Data": "No"
    },
    {
      "Order": "24",
      "Dataset": "ADCM",
      "Variable": "DMDTC",
      "Label": "Date/Time of Collection",
      "Data Type": "datetime",
      "Mandatory": "No",
      "Has No Data": "No"
    },
    {
      "Order": "25",
      "Dataset": "ADCM",
      "Variable": "DMDY",
      "Label": "Study Day of Collection",
      "Data Type": "integer",
      "Length": "8",
      "Mandatory": "No",
      "Has No Data": "No"
    },
    {
      "Order": "26",
      "Dataset": "ADCM",
      "Variable": "AGE",
      "Label": "Age",
      "Data Type": "integer",
      "Length": "8",
      "Mandatory": "No",
      "Has No Data": "No"
    },
    {
      "Order": "27",
      "Dataset": "ADCM",
      "Variable": "AGEU",
      "Label": "Age Units",
      "Data Type": "text",
      "Length": "5",
      "Mandatory": "No",
      "Has No Data": "No"
    },
    {
      "Order": "28",
      "Dataset": "ADCM",
      "Variable": "AGEGR1",
      "Label": "Pooled Age Group 1",
      "Data Type": "integer",
      "Length": "8",
      "Mandatory": "No",
      "Has No Data": "No"
    },
    {
      "Order": "29",
      "Dataset": "ADCM",
      "Variable": "SEX",
      "Label": "Sex",
      "Data Type": "text",
      "Length": "1",
      "Mandatory": "No",
      "Has No Data": "No"
    },
    {
      "Order": "30",
      "Dataset": "ADCM",
      "Variable": "RACE",
      "Label": "Race",
      "Data Type": "text",
      "Length": "32",
      "Mandatory": "No",
      "Has No Data": "No"
    },
    {
      "Order": "31",
      "Dataset": "ADCM",
      "Variable": "RACEGR1",
      "Label": "Pooled Race Group 1",
      "Data Type": "text",
      "Length": "9",
      "Mandatory": "No",
      "Has No Data": "No"
    },
    {
      "Order": "32",
      "Dataset": "ADCM",
      "Variable": "ETHNIC",
      "Label": "Ethnicity",
      "Data Type": "text",
      "Length": "22",
      "Mandatory": "No",
      "Has No Data": "No"
    },
    {
      "Order": "33",
      "Dataset": "ADCM",
      "Variable": "SAFFL",
      "Label": "Safety Population Flag",
      "Data Type": "text",
      "Length": "1",
      "Mandatory": "No",
      "Has No Data": "No"
    },
    {
      "Order": "34",
      "Dataset": "ADCM",
      "Variable": "ARM",
      "Label": "Description of Planned Arm",
      "Data Type": "text",
      "Length": "20",
      "Mandatory": "No",
      "Has No Data": "No"
    },
    {
      "Order": "35",
      "Dataset": "ADCM",
      "Variable": "ARMCD",
      "Label": "Planned Arm Code",
      "Data Type": "text",
      "Length": "6",
      "Mandatory": "No",
      "Has No Data": "No"
    },
    {
      "Order": "36",
      "Dataset": "ADCM",
      "Variable": "ACTARM",
      "Label": "Description of Actual Arm",
      "Data Type": "text",
      "Length": "20",
      "Mandatory": "No",
      "Has No Data": "No"
    },
    {
      "Order": "37",
      "Dataset": "ADCM",
      "Variable": "ACTARMCD",
      "Label": "Actual Arm Code",
      "Data Type": "text",
      "Length": "6",
      "Mandatory": "No",
      "Has No Data": "No"
    },
    {
      "Order": "38",
      "Dataset": "ADCM",
      "Variable": "TRTP",
      "Label": "Planned Treatment",
      "Data Type": "text",
      "Length": "20",
      "Mandatory": "No",
      "Has No Data": "No"
    },
    {
      "Order": "39",
      "Dataset": "ADCM",
      "Variable": "TRTA",
      "Label": "Actual Treatment",
      "Data Type": "text",
      "Length": "20",
      "Mandatory": "No",
      "Has No Data": "No"
    },
    {
      "Order": "40",
      "Dataset": "ADCM",
      "Variable": "TRT01P",
      "Label": "Planned Treatment for Period 01",
      "Data Type": "text",
      "Length": "20",
      "Mandatory": "No",
      "Has No Data": "No"
    },
    {
      "Order": "41",
      "Dataset": "ADCM",
      "Variable": "TRT01A",
      "Label": "Actual Treatment for Period 01",
      "Data Type": "text",
      "Length": "20",
      "Mandatory": "No",
      "Has No Data": "No"
    },
    {
      "Order": "42",
      "Dataset": "ADCM",
      "Variable": "TRTSDT",
      "Label": "Date of First Exposure to Treatment",
      "Data Type": "integer",
      "Length": "8",
      "Format": "DATE",
      "Mandatory": "No",
      "Has No Data": "No"
    },
    {
      "Order": "43",
      "Dataset": "ADCM",
      "Variable": "TRTSDTM",
      "Label": "Datetime of First Exposure to Treatment",
      "Data Type": "integer",
      "Length": "8",
      "Format": "DATETIME",
      "Mandatory": "No",
      "Has No Data": "No"
    },
    {
      "Order": "44",
      "Dataset": "ADCM",
      "Variable": "TRTSTMF",
      "Label": "Time of First Exposure Imput. Flag",
      "Data Type": "text",
      "Length": "1",
      "Mandatory": "No",
      "Has No Data": "No"
    },
    {
      "Order": "45",
      "Dataset": "ADCM",
      "Variable": "TRTEDT",
      "Label": "Date of Last Exposure to Treatment",
      "Data Type": "integer",
      "Length": "8",
      "Format": "DATE",
      "Mandatory": "No",
      "Has No Data": "No"
    },
    {
      "Order": "46",
      "Dataset": "ADCM",
      "Variable": "TRTEDTM",
      "Label": "Datetime of Last Exposure to Treatment",
      "Data Type": "integer",
      "Length": "8",
      "Format": "DATETIME",
      "Mandatory": "No",
      "Has No Data": "No"
    },
    {
      "Order": "47",
      "Dataset": "ADCM",
      "Variable": "TRTETMF",
      "Label": "Treatment End Datetime Imput Flag",
      "Data Type": "text",
      "Length": "1",
      "Mandatory": "No",
      "Has No Data": "No"
    },
    {
      "Order": "48",
      "Dataset": "ADCM",
      "Variable": "APHASE",
      "Label": "Phase",
      "Data Type": "text",
      "Length": "13",
      "Mandatory": "No",
      "Has No Data": "No"
    },
    {
      "Order": "49",
      "Dataset": "ADCM",
      "Variable": "APHASEN",
      "Label": "Description of Phase N",
      "Data Type": "integer",
      "Length": "8",
      "Mandatory": "No",
      "Has No Data": "No"
    },
    {
      "Order": "50",
      "Dataset": "ADCM",
      "Variable": "EOSSTT",
      "Label": "End of Study Status",
      "Data Type": "text",
      "Length": "12",
      "Mandatory": "No",
      "Has No Data": "No"
    },
    {
      "Order": "51",
      "Dataset": "ADCM",
      "Variable": "EOSDT",
      "Label": "End of Study Date",
      "Data Type": "integer",
      "Length": "8",
      "Format": "DATE",
      "Mandatory": "No",
      "Has No Data": "No"
    },
    {
      "Order": "52",
      "Dataset": "ADCM",
      "Variable": "RFICDTC",
      "Label": "Date/Time of Informed Consent",
      "Data Type": "text",
      "Length": "1",
      "Mandatory": "No",
      "Has No Data": "No"
    },
    {
      "Order": "53",
      "Dataset": "ADCM",
      "Variable": "RANDDT",
      "Label": "Date of Randomization",
      "Data Type": "integer",
      "Length": "8",
      "Format": "DATE",
      "Mandatory": "No",
      "Has No Data": "No"
    },
    {
      "Order": "54",
      "Dataset": "ADCM",
      "Variable": "LSTALVDT",
      "Label": "Date Last Known Alive",
      "Data Type": "integer",
      "Length": "8",
      "Format": "DATE",
      "Mandatory": "No",
      "Has No Data": "No"
    },
    {
      "Order": "55",
      "Dataset": "ADCM",
      "Variable": "TRTDURD",
      "Label": "Total Treatment Duration (Days)",
      "Data Type": "integer",
      "Length": "8",
      "Mandatory": "No",
      "Has No Data": "No"
    },
    {
      "Order": "56",
      "Dataset": "ADCM",
      "Variable": "DTHDT",
      "Label": "Date of Death",
      "Data Type": "integer",
      "Length": "8",
      "Format": "DATE",
      "Mandatory": "No",
      "Has No Data": "No"
    },
    {
      "Order": "57",
      "Dataset": "ADCM",
      "Variable": "DTHDTF",
      "Label": "Date of Death Imputation Flag",
      "Data Type": "text",
      "Length": "1",
      "Mandatory": "No",
      "Role": "ADSL Subject-Level Trial Experience Variables",
      "Has No Data": "No"
    },
    {
      "Order": "58",
      "Dataset": "ADCM",
      "Variable": "DTHCAUS",
      "Label": "Cause of Death",
      "Data Type": "text",
      "Length": "200",
      "Mandatory": "No",
      "Has No Data": "No"
    },
    {
      "Order": "59",
      "Dataset": "ADCM",
      "Variable": "DTHCGR1",
      "Label": "Cause of Death Reason 1",
      "Data Type": "text",
      "Length": "200",
      "Mandatory": "No",
      "Has No Data": "No"
    },
    {
      "Order": "60",
      "Dataset": "ADCM",
      "Variable": "CMSEQ",
      "Label": "Sequence Number",
      "Data Type": "integer",
      "Length": "8",
      "Mandatory": "No",
      "Has No Data": "No"
    },
    {
      "Order": "61",
      "Dataset": "ADCM",
      "Variable": "CMDECOD",
      "Label": "Standardized Medication Name",
      "Data Type": "text",
      "Length": "24",
      "Mandatory": "No",
      "Has No Data": "No"
    },
    {
      "Order": "62",
      "Dataset": "ADCM",
      "Variable": "CMTRT",
      "Label": "Reported Name of Drug, Med, or Therapy",
      "Data Type": "text",
      "Length": "44",
      "Mandatory": "No",
      "Has No Data": "No"
    },
    {
      "Order": "63",
      "Dataset": "ADCM",
      "Variable": "CMCLAS",
      "Label": "Medication Class",
      "Data Type": "text",
      "Length": "42",
      "Mandatory": "No",
      "Has No Data": "No"
    },
    {
      "Order": "64",
      "Dataset": "ADCM",
      "Variable": "CMSTDTC",
      "Label": "Start Date/Time of Medication",
      "Data Type": "datetime",
      "Mandatory": "No",
      "Has No Data": "No"
    },
    {
      "Order": "65",
      "Dataset": "ADCM",
      "Variable": "ASTDT",
      "Label": "Analysis Start Date",
      "Data Type": "integer",
      "Length": "8",
      "Format": "DATE",
      "Mandatory": "No",
      "Has No Data": "No"
    },
    {
      "Order": "66",
      "Dataset": "ADCM",
      "Variable": "ASTDTM",
      "Label": "Analysis Start Date/Time",
      "Data Type": "integer",
      "Length": "8",
      "Format": "DATETIME",
      "Mandatory": "No",
      "Has No Data": "No"
    },
    {
      "Order": "67",
      "Dataset": "ADCM",
      "Variable": "ASTDTF",
      "Label": "Analysis Start Date Imputation Flag",
      "Data Type": "text",
      "Length": "1",
      "Mandatory": "No",
      "Has No Data": "No"
    },
    {
      "Order": "68",
      "Dataset": "ADCM",
      "Variable": "ASTTMF",
      "Label": "Analysis Start Time Imputation Flag",
      "Data Type": "text",
      "Length": "1",
      "Mandatory": "No",
      "Has No Data": "No"
    },
    {
      "Order": "69",
      "Dataset": "ADCM",
      "Variable": "CMENDTC",
      "Label": "End Date/Time of Medication",
      "Data Type": "datetime",
      "Mandatory": "No",
      "Has No Data": "No"
    },
    {
      "Order": "70",
      "Dataset": "ADCM",
      "Variable": "AENDT",
      "Label": "Analysis End Date",
      "Data Type": "integer",
      "Length": "8",
      "Format": "DATE",
      "Mandatory": "No",
      "Has No Data": "No"
    },
    {
      "Order": "71",
      "Dataset": "ADCM",
      "Variable": "AENDTM",
      "Label": "Analysis End Date/Time",
      "Data Type": "integer",
      "Length": "8",
      "Format": "DATETIME",
      "Mandatory": "No",
      "Has No Data": "No"
    },
    {
      "Order": "72",
      "Dataset": "ADCM",
      "Variable": "AENDTF",
      "Label": "Analysis End Date Imputation Flag",
      "Data Type": "text",
      "Length": "1",
      "Mandatory": "No",
      "Has No Data": "No"
    },
    {
      "Order": "73",
      "Dataset": "ADCM",
      "Variable": "AENTMF",
      "Label": "Analysis End Time Imputation Flag",
      "Data Type": "text",
      "Length": "1",
      "Mandatory": "No",
      "Has No Data": "No"
    },
    {
      "Order": "74",
      "Dataset": "ADCM",
      "Variable": "ASTDY",
      "Label": "Analysis Start Relative Day",
      "Data Type": "integer",
      "Length": "8",
      "Mandatory": "No",
      "Has No Data": "No"
    },
    {
      "Order": "75",
      "Dataset": "ADCM",
      "Variable": "CMSTDY",
      "Label": "Study Day of Start of Medication",
      "Data Type": "integer",
      "Length": "8",
      "Mandatory": "No",
      "Has No Data": "No"
    },
    {
      "Order": "76",
      "Dataset": "ADCM",
      "Variable": "AENDY",
      "Label": "Analysis End Relative Day",
      "Data Type": "integer",
      "Length": "8",
      "Mandatory": "No",
      "Has No Data": "No"
    },
    {
      "Order": "77",
      "Dataset": "ADCM",
      "Variable": "CMENDY",
      "Label": "Study Day of End of Medication",
      "Data Type": "integer",
      "Length": "8",
      "Mandatory": "No",
      "Has No Data": "No"
    },
    {
      "Order": "78",
      "Dataset": "ADCM",
      "Variable": "ADURN",
      "Label": "Analysis Duration (N)",
      "Data Type": "integer",
      "Length": "8",
      "Mandatory": "No",
      "Has No Data": "No"
    },
    {
      "Order": "79",
      "Dataset": "ADCM",
      "Variable": "ADURU",
      "Label": "Analysis Duration Units",
      "Data Type": "text",
      "Length": "4",
      "Mandatory": "No",
      "Has No Data": "No"
    },
    {
      "Order": "80",
      "Dataset": "ADCM",
      "Variable": "ANL01FL",
      "Label": "Analysis Flag 01",
      "Data Type": "text",
      "Length": "1",
      "Mandatory": "No",
      "Has No Data": "No"
    },
    {
      "Order": "81",
      "Dataset": "ADCM",
      "Variable": "ONTRTFL",
      "Label": "On Treatment Record Flag",
      "Data Type": "text",
      "Length": "1",
      "Mandatory": "No",
      "Has No Data": "No"
    },
    {
      "Order": "82",
      "Dataset": "ADCM",
      "Variable": "PREFL",
      "Label": "Pre-treatment Flag",
      "Data Type": "text",
      "Length": "1",
      "Mandatory": "No",
      "Has No Data": "No"
    },
    {
      "Order": "83",
      "Dataset": "ADCM",
      "Variable": "FUPFL",
      "Label": "Follow-up Flag",
      "Data Type": "text",
      "Length": "1",
      "Mandatory": "No",
      "Has No Data": "No"
    },
    {
      "Order": "84",
      "Dataset": "ADCM",
      "Variable": "AOCCPFL",
      "Label": "1st Occurrence of Preferred Term Flag",
      "Data Type": "text",
      "Length": "1",
      "Mandatory": "No",
      "Has No Data": "No"
    },
    {
      "Order": "85",
      "Dataset": "ADCM",
      "Variable": "CMINDC",
      "Label": "Indication",
      "Data Type": "text",
      "Length": "34",
      "Mandatory": "No",
      "Has No Data": "No"
    },
    {
      "Order": "86",
      "Dataset": "ADCM",
      "Variable": "CMDOSE",
      "Label": "Dose per Administration",
      "Data Type": "float",
      "Length": "7",
      "Significant Digits": "3",
      "Mandatory": "No",
      "Has No Data": "No"
    },
    {
      "Order": "87",
      "Dataset": "ADCM",
      "Variable": "CMDOSU",
      "Label": "Dose Units",
      "Data Type": "text",
      "Length": "7",
      "Mandatory": "No",
      "Has No Data": "No"
    },
    {
      "Order": "88",
      "Dataset": "ADCM",
      "Variable": "CMDOSFRQ",
      "Label": "Dosing Frequency per Interval",
      "Data Type": "text",
      "Length": "13",
      "Mandatory": "No",
      "Has No Data": "No"
    },
    {
      "Order": "89",
      "Dataset": "ADCM",
      "Variable": "CMROUTE",
      "Label": "Route of Administration",
      "Data Type": "text",
      "Length": "24",
      "Mandatory": "No",
      "Has No Data": "No"
    },
    {
      "Order": "90",
      "Dataset": "ADCM",
      "Variable": "CMSPID",
      "Label": "Sponsor-Defined Identifier",
      "Data Type": "text",
      "Length": "2",
      "Mandatory": "No",
      "Has No Data": "No"
    },
    {
      "Order": "91",
      "Dataset": "ADCM",
      "Variable": "CMENRTPT",
      "Label": "End Relative to Reference Time Point",
      "Data Type": "text",
      "Length": "20",
      "Mandatory": "No",
      "Has No Data": "No"
    },
    {
      "Order": "92",
      "Dataset": "ADCM",
      "Variable": "VISITNUM",
      "Label": "Visit Number",
      "Data Type": "integer",
      "Length": "8",
      "Mandatory": "No",
      "Has No Data": "No"
    },
    {
      "Order": "93",
      "Dataset": "ADCM",
      "Variable": "VISIT",
      "Label": "Visit Name",
      "Data Type": "text",
      "Length": "17",
      "Mandatory": "No",
      "Has No Data": "No"
    },
    {
      "Order": "94",
      "Dataset": "ADCM",
      "Variable": "VISITDY",
      "Label": "Planned Study Day of Visit",
      "Data Type": "integer",
      "Length": "8",
      "Mandatory": "No",
      "Has No Data": "No"
    },
    {
      "Order": "95",
      "Dataset": "ADCM",
      "Variable": "CMDTC",
      "Label": "Date/Time of Collection",
      "Data Type": "datetime",
      "Mandatory": "No",
      "Has No Data": "No"
    },
    {
      "Order": "1",
      "Dataset": "ADEG",
      "Variable": "STUDYID",
      "Label": "Study Identifier",
      "Data Type": "text",
      "Length": "12",
      "Mandatory": "Yes",
      "Role": "Identifier Variables for BDS Datasets",
      "Has No Data": "No"
    },
    {
      "Order": "2",
      "Dataset": "ADEG",
      "Variable": "USUBJID",
      "Label": "Unique Subject Identifier",
      "Data Type": "text",
      "Length": "11",
      "Mandatory": "Yes",
      "Role": "Identifier Variables for BDS Datasets",
      "Has No Data": "No"
    },
    {
      "Order": "3",
      "Dataset": "ADEG",
      "Variable": "SUBJID",
      "Label": "Subject Identifier for the Study",
      "Data Type": "text",
      "Length": "4",
      "Mandatory": "No",
      "Role": "Identifier Variables for BDS Datasets",
      "Has No Data": "No"
    },
    {
      "Order": "4",
      "Dataset": "ADEG",
      "Variable": "SITEID",
      "Label": "Study Site Identifier",
      "Data Type": "text",
      "Length": "3",
      "Mandatory": "No",
      "Role": "Identifier Variables for BDS Datasets",
      "Has No Data": "No"
    },
    {
      "Order": "5",
      "Dataset": "ADEG",
      "Variable": "COUNTRY",
      "Label": "Country",
      "Data Type": "text",
      "Length": "3",
      "Mandatory": "No",
      "Has No Data": "No"
    },
    {
      "Order": "6",
      "Dataset": "ADEG",
      "Variable": "DOMAIN",
      "Label": "Domain Abbreviation",
      "Data Type": "text",
      "Length": "2",
      "Mandatory": "No",
      "Has No Data": "No"
    },
    {
      "Order": "7",
      "Dataset": "ADEG",
      "Variable": "RFSTDTC",
      "Label": "Subject Reference Start Date/Time",
      "Data Type": "datetime",
      "Mandatory": "No",
      "Has No Data": "No"
    },
    {
      "Order": "8",
      "Dataset": "ADEG",
      "Variable": "RFENDTC",
      "Label": "Subject Reference End Date/Time",
      "Data Type": "datetime",
      "Mandatory": "No",
      "Has No Data": "No"
    },
    {
      "Order": "9",
      "Dataset": "ADEG",
      "Variable": "RFXSTDTC",
      "Label": "Date/Time of First Study Treatment",
      "Data Type": "datetime",
      "Mandatory": "No",
      "Has No Data": "No"
    },
    {
      "Order": "10",
      "Dataset": "ADEG",
      "Variable": "RFXENDTC",
      "Label": "Date/Time of Last Study Treatment",
      "Data Type": "datetime",
      "Mandatory": "No",
      "Has No Data": "No"
    },
    {
      "Order": "11",
      "Dataset": "ADEG",
      "Variable": "RFPENDTC",
      "Label": "Date/Time of End of Participation",
      "Data Type": "datetime",
      "Mandatory": "No",
      "Has No Data": "No"
    },
    {
      "Order": "12",
      "Dataset": "ADEG",
      "Variable": "SCRFDT",
      "Label": "Screen Failure Date",
      "Data Type": "integer",
      "Length": "8",
      "Format": "DATE",
      "Mandatory": "No",
      "Has No Data": "No"
    },
    {
      "Order": "13",
      "Dataset": "ADEG",
      "Variable": "FRVDT",
      "Label": "Final Retrieval Visit Date",
      "Data Type": "integer",
      "Length": "8",
      "Format": "DATE",
      "Mandatory": "No",
      "Has No Data": "No"
    },
    {
      "Order": "14",
      "Dataset": "ADEG",
      "Variable": "DTHDTC",
      "Label": "Date/Time of Death",
      "Data Type": "datetime",
      "Mandatory": "No",
      "Has No Data": "No"
    },
    {
      "Order": "15",
      "Dataset": "ADEG",
      "Variable": "DTHADY",
      "Label": "Relative Day of Death",
      "Data Type": "integer",
      "Length": "8",
      "Mandatory": "No",
      "Has No Data": "No"
    },
    {
      "Order": "16",
      "Dataset": "ADEG",
      "Variable": "DTHFL",
      "Label": "Subject Death Flag",
      "Data Type": "text",
      "Length": "1",
      "Mandatory": "No",
      "Has No Data": "No"
    },
    {
      "Order": "17",
      "Dataset": "ADEG",
      "Variable": "LDDTHELD",
      "Label": "Elapsed Days from Last Dose to Death",
      "Data Type": "integer",
      "Length": "8",
      "Mandatory": "No",
      "Has No Data": "No"
    },
    {
      "Order": "18",
      "Dataset": "ADEG",
      "Variable": "LDDTHGR1",
      "Label": "Last Dose to Death - Days Elapsed Grp 1",
      "Data Type": "text",
      "Length": "5",
      "Mandatory": "No",
      "Has No Data": "No"
    },
    {
      "Order": "19",
      "Dataset": "ADEG",
      "Variable": "DTH30FL",
      "Label": "Death Within 30 Days of Last Trt Flag",
      "Data Type": "text",
      "Length": "1",
      "Mandatory": "No",
      "Has No Data": "No"
    },
    {
      "Order": "20",
      "Dataset": "ADEG",
      "Variable": "DTHA30FL",
      "Label": "Death After 30 Days from Last Trt Flag",
      "Data Type": "text",
      "Length": "1",
      "Mandatory": "No",
      "Has No Data": "No"
    },
    {
      "Order": "21",
      "Dataset": "ADEG",
      "Variable": "DTHDOM",
      "Label": "Domain for Date of Death Collection",
      "Data Type": "text",
      "Length": "200",
      "Mandatory": "No",
      "Has No Data": "No"
    },
    {
      "Order": "22",
      "Dataset": "ADEG",
      "Variable": "DTHB30FL",
      "Label": "Death Within 30 Days of First Trt Flag",
      "Data Type": "text",
      "Length": "1",
      "Mandatory": "No",
      "Has No Data": "No"
    },
    {
      "Order": "23",
      "Dataset": "ADEG",
      "Variable": "ASEQ",
      "Label": "Analysis Sequence Number",
      "Data Type": "integer",
      "Length": "8",
      "Mandatory": "No",
      "Role": "Identifier Variables for BDS Datasets",
      "Has No Data": "No"
    },
    {
      "Order": "24",
      "Dataset": "ADEG",
      "Variable": "REGION1",
      "Label": "Geographic Region 1",
      "Data Type": "text",
      "Length": "2",
      "Mandatory": "No",
      "Has No Data": "No"
    },
    {
      "Order": "25",
      "Dataset": "ADEG",
      "Variable": "DMDTC",
      "Label": "Date/Time of Collection",
      "Data Type": "datetime",
      "Mandatory": "No",
      "Has No Data": "No"
    },
    {
      "Order": "26",
      "Dataset": "ADEG",
      "Variable": "DMDY",
      "Label": "Study Day of Collection",
      "Data Type": "integer",
      "Length": "8",
      "Mandatory": "No",
      "Has No Data": "No"
    },
    {
      "Order": "27",
      "Dataset": "ADEG",
      "Variable": "AGE",
      "Label": "Age",
      "Data Type": "integer",
      "Length": "8",
      "Mandatory": "No",
      "Role": "ADSL Subject Demographics Variables",
      "Has No Data": "No"
    },
    {
      "Order": "28",
      "Dataset": "ADEG",
      "Variable": "AGEU",
      "Label": "Age Units",
      "Data Type": "text",
      "Length": "5",
      "Mandatory": "No",
      "Role": "ADSL Subject Demographics Variables",
      "Has No Data": "No"
    },
    {
      "Order": "29",
      "Dataset": "ADEG",
      "Variable": "AGEGR1",
      "Label": "Pooled Age Group 1",
      "Data Type": "integer",
      "Length": "8",
      "Mandatory": "No",
      "Has No Data": "No"
    },
    {
      "Order": "30",
      "Dataset": "ADEG",
      "Variable": "SEX",
      "Label": "Sex",
      "Data Type": "text",
      "Length": "1",
      "Mandatory": "No",
      "Role": "ADSL Subject Demographics Variables",
      "Has No Data": "No"
    },
    {
      "Order": "31",
      "Dataset": "ADEG",
      "Variable": "RACE",
      "Label": "Race",
      "Data Type": "text",
      "Length": "32",
      "Mandatory": "No",
      "Role": "ADSL Subject Demographics Variables",
      "Has No Data": "No"
    },
    {
      "Order": "32",
      "Dataset": "ADEG",
      "Variable": "RACEGR1",
      "Label": "Pooled Race Group 1",
      "Data Type": "text",
      "Length": "9",
      "Mandatory": "No",
      "Has No Data": "No"
    },
    {
      "Order": "33",
      "Dataset": "ADEG",
      "Variable": "ETHNIC",
      "Label": "Ethnicity",
      "Data Type": "text",
      "Length": "22",
      "Mandatory": "No",
      "Has No Data": "No"
    },
    {
      "Order": "34",
      "Dataset": "ADEG",
      "Variable": "SAFFL",
      "Label": "Safety Population Flag",
      "Data Type": "text",
      "Length": "1",
      "Mandatory": "No",
      "Role": "ADSL Population Indicator Variables",
      "Has No Data": "No"
    },
    {
      "Order": "35",
      "Dataset": "ADEG",
      "Variable": "ARM",
      "Label": "Description of Planned Arm",
      "Data Type": "text",
      "Length": "20",
      "Mandatory": "No",
      "Role": "ADSL Treatment Variables",
      "Has No Data": "No"
    },
    {
      "Order": "36",
      "Dataset": "ADEG",
      "Variable": "ARMCD",
      "Label": "Planned Arm Code",
      "Data Type": "text",
      "Length": "6",
      "Mandatory": "No",
      "Has No Data": "No"
    },
    {
      "Order": "37",
      "Dataset": "ADEG",
      "Variable": "ACTARM",
      "Label": "Description of Actual Arm",
      "Data Type": "text",
      "Length": "20",
      "Mandatory": "No",
      "Role": "ADSL Treatment Variables",
      "Has No Data": "No"
    },
    {
      "Order": "38",
      "Dataset": "ADEG",
      "Variable": "ACTARMCD",
      "Label": "Actual Arm Code",
      "Data Type": "text",
      "Length": "6",
      "Mandatory": "No",
      "Has No Data": "No"
    },
    {
      "Order": "39",
      "Dataset": "ADEG",
      "Variable": "TRTP",
      "Label": "Planned Treatment",
      "Data Type": "text",
      "Length": "20",
      "Mandatory": "No",
      "Role": "Record-Level Treatment Variables for BDS Datasets",
      "Has No Data": "No"
    },
    {
      "Order": "40",
      "Dataset": "ADEG",
      "Variable": "TRTA",
      "Label": "Actual Treatment",
      "Data Type": "text",
      "Length": "20",
      "Mandatory": "No",
      "Role": "Record-Level Treatment Variables for BDS Datasets",
      "Has No Data": "No"
    },
    {
      "Order": "41",
      "Dataset": "ADEG",
      "Variable": "TRT01P",
      "Label": "Planned Treatment for Period 01",
      "Data Type": "text",
      "Length": "20",
      "Mandatory": "No",
      "Has No Data": "No"
    },
    {
      "Order": "42",
      "Dataset": "ADEG",
      "Variable": "TRT01A",
      "Label": "Actual Treatment for Period 01",
      "Data Type": "text",
      "Length": "20",
      "Mandatory": "No",
      "Has No Data": "No"
    },
    {
      "Order": "43",
      "Dataset": "ADEG",
      "Variable": "TRTSDT",
      "Label": "Date of First Exposure to Treatment",
      "Data Type": "integer",
      "Length": "8",
      "Format": "DATE",
      "Mandatory": "No",
      "Role": "ADSL Treatment Timing Variables",
      "Has No Data": "No"
    },
    {
      "Order": "44",
      "Dataset": "ADEG",
      "Variable": "TRTSDTM",
      "Label": "Datetime of First Exposure to Treatment",
      "Data Type": "integer",
      "Length": "8",
      "Format": "DATETIME",
      "Mandatory": "No",
      "Role": "ADSL Treatment Timing Variables",
      "Has No Data": "No"
    },
    {
      "Order": "45",
      "Dataset": "ADEG",
      "Variable": "TRTSTMF",
      "Label": "Time of First Exposure Imput. Flag",
      "Data Type": "text",
      "Length": "1",
      "Mandatory": "No",
      "Role": "ADSL Treatment Timing Variables",
      "Has No Data": "No"
    },
    {
      "Order": "46",
      "Dataset": "ADEG",
      "Variable": "TRTEDT",
      "Label": "Date of Last Exposure to Treatment",
      "Data Type": "integer",
      "Length": "8",
      "Format": "DATE",
      "Mandatory": "No",
      "Role": "ADSL Treatment Timing Variables",
      "Has No Data": "No"
    },
    {
      "Order": "47",
      "Dataset": "ADEG",
      "Variable": "TRTEDTM",
      "Label": "Datetime of Last Exposure to Treatment",
      "Data Type": "integer",
      "Length": "8",
      "Format": "DATETIME",
      "Mandatory": "No",
      "Role": "ADSL Treatment Timing Variables",
      "Has No Data": "No"
    },
    {
      "Order": "48",
      "Dataset": "ADEG",
      "Variable": "TRTETMF",
      "Label": "Time of Last Exposure Imput. Flag",
      "Data Type": "text",
      "Length": "1",
      "Mandatory": "No",
      "Role": "ADSL Treatment Timing Variables",
      "Has No Data": "No"
    },
    {
      "Order": "49",
      "Dataset": "ADEG",
      "Variable": "EOSSTT",
      "Label": "End of Study Status",
      "Data Type": "text",
      "Length": "12",
      "Mandatory": "No",
      "Role": "ADSL Subject-Level Trial Experience Variables",
      "Has No Data": "No"
    },
    {
      "Order": "50",
      "Dataset": "ADEG",
      "Variable": "EOSDT",
      "Label": "End of Study Date",
      "Data Type": "integer",
      "Length": "8",
      "Format": "DATE",
      "Mandatory": "No",
      "Role": "ADSL Subject-Level Trial Experience Variables",
      "Has No Data": "No"
    },
    {
      "Order": "51",
      "Dataset": "ADEG",
      "Variable": "RFICDTC",
      "Label": "Date/Time of Informed Consent",
      "Data Type": "text",
      "Length": "1",
      "Mandatory": "No",
      "Has No Data": "No"
    },
    {
      "Order": "52",
      "Dataset": "ADEG",
      "Variable": "RANDDT",
      "Label": "Date of Randomization",
      "Data Type": "integer",
      "Length": "8",
      "Format": "DATE",
      "Mandatory": "No",
      "Role": "ADSL Subject-Level Trial Experience Variables",
      "Has No Data": "No"
    },
    {
      "Order": "53",
      "Dataset": "ADEG",
      "Variable": "LSTALVDT",
      "Label": "Date Last Known Alive",
      "Data Type": "integer",
      "Length": "8",
      "Format": "DATE",
      "Mandatory": "No",
      "Role": "ADSL Subject-Level Trial Experience Variables",
      "Has No Data": "No"
    },
    {
      "Order": "54",
      "Dataset": "ADEG",
      "Variable": "TRTDURD",
      "Label": "Total Treatment Duration (Days)",
      "Data Type": "integer",
      "Length": "8",
      "Mandatory": "No",
      "Role": "ADSL Subject-Level Trial Experience Variables",
      "Has No Data": "No"
    },
    {
      "Order": "55",
      "Dataset": "ADEG",
      "Variable": "DTHDT",
      "Label": "Date of Death",
      "Data Type": "integer",
      "Length": "8",
      "Format": "DATE",
      "Mandatory": "No",
      "Role": "ADSL Subject-Level Trial Experience Variables",
      "Has No Data": "No"
    },
    {
      "Order": "56",
      "Dataset": "ADEG",
      "Variable": "DTHDTF",
      "Label": "Date of Death Imputation Flag",
      "Data Type": "text",
      "Length": "1",
      "Mandatory": "No",
      "Role": "ADSL Subject-Level Trial Experience Variables",
      "Has No Data": "No"
    },
    {
      "Order": "57",
      "Dataset": "ADEG",
      "Variable": "DTHCAUS",
      "Label": "Cause of Death",
      "Data Type": "text",
      "Length": "200",
      "Mandatory": "No",
      "Has No Data": "No"
    },
    {
      "Order": "58",
      "Dataset": "ADEG",
      "Variable": "DTHCGR1",
      "Label": "Cause of Death Reason 1",
      "Data Type": "text",
      "Length": "200",
      "Mandatory": "No",
      "Has No Data": "No"
    },
    {
      "Order": "59",
      "Dataset": "ADEG",
      "Variable": "ADT",
      "Label": "Analysis Date",
      "Data Type": "integer",
      "Length": "8",
      "Format": "DATE",
      "Mandatory": "No",
      "Role": "Timing Variables for BDS Datasets",
      "Has No Data": "No"
    },
    {
      "Order": "60",
      "Dataset": "ADEG",
      "Variable": "ADTM",
      "Label": "Analysis Datetime",
      "Data Type": "integer",
      "Length": "8",
      "Format": "DATETIME",
      "Mandatory": "No",
      "Role": "Timing Variables for BDS Datasets",
      "Has No Data": "No"
    },
    {
      "Order": "61",
      "Dataset": "ADEG",
      "Variable": "ADY",
      "Label": "Analysis Relative Day",
      "Data Type": "integer",
      "Length": "8",
      "Mandatory": "No",
      "Role": "Timing Variables for BDS Datasets",
      "Has No Data": "No"
    },
    {
      "Order": "62",
      "Dataset": "ADEG",
      "Variable": "ATMF",
      "Label": "Analysis Time Imputation Flag",
      "Data Type": "text",
      "Length": "1",
      "Mandatory": "No",
      "Role": "Timing Variables for BDS Datasets",
      "Has No Data": "No"
    },
    {
      "Order": "63",
      "Dataset": "ADEG",
      "Variable": "AVISIT",
      "Label": "Analysis Visit",
      "Data Type": "text",
      "Length": "8",
      "Mandatory": "No",
      "Role": "Timing Variables for BDS Datasets",
      "Has No Data": "No"
    },
    {
      "Order": "64",
      "Dataset": "ADEG",
      "Variable": "AVISITN",
      "Label": "Analysis Visit (N)",
      "Data Type": "integer",
      "Length": "8",
      "Mandatory": "No",
      "Role": "Timing Variables for BDS Datasets",
      "Has No Data": "No"
    },
    {
      "Order": "65",
      "Dataset": "ADEG",
      "Variable": "ATPT",
      "Label": "Analysis Timepoint",
      "Data Type": "text",
      "Length": "30",
      "Mandatory": "No",
      "Role": "Timing Variables for BDS Datasets",
      "Has No Data": "No"
    },
    {
      "Order": "66",
      "Dataset": "ADEG",
      "Variable": "ATPTN",
      "Label": "Analysis Timepoint (N)",
      "Data Type": "integer",
      "Length": "8",
      "Mandatory": "No",
      "Role": "Timing Variables for BDS Datasets",
      "Has No Data": "No"
    },
    {
      "Order": "67",
      "Dataset": "ADEG",
      "Variable": "PARAM",
      "Label": "Parameter",
      "Data Type": "text",
      "Length": "55",
      "Mandatory": "Yes",
      "Role": "Analysis Parameter Variables for BDS Datasets",
      "Has No Data": "No"
    },
    {
      "Order": "68",
      "Dataset": "ADEG",
      "Variable": "PARAMCD",
      "Label": "Parameter Code",
      "Data Type": "text",
      "Length": "6",
      "Mandatory": "Yes",
      "Role": "Analysis Parameter Variables for BDS Datasets",
      "Has No Data": "No"
    },
    {
      "Order": "69",
      "Dataset": "ADEG",
      "Variable": "PARAMN",
      "Label": "Parameter (N)",
      "Data Type": "integer",
      "Length": "8",
      "Mandatory": "No",
      "Role": "Analysis Parameter Variables for BDS Datasets",
      "Has No Data": "No"
    },
    {
      "Order": "70",
      "Dataset": "ADEG",
      "Variable": "AVAL",
      "Label": "Analysis Value",
      "Data Type": "float",
      "Length": "12",
      "Significant Digits": "8",
      "Mandatory": "No",
      "Role": "Analysis Parameter Variables for BDS Datasets",
      "Has No Data": "No"
    },
    {
      "Order": "71",
      "Dataset": "ADEG",
      "Variable": "AVALC",
      "Label": "Analysis Value (C)",
      "Data Type": "text",
      "Length": "8",
      "Mandatory": "No",
      "Role": "Analysis Parameter Variables for BDS Datasets",
      "Has No Data": "No"
    },
    {
      "Order": "72",
      "Dataset": "ADEG",
      "Variable": "AVALCAT1",
      "Label": "Analysis Value Category 1",
      "Data Type": "text",
      "Length": "14",
      "Mandatory": "No",
      "Has No Data": "No"
    },
    {
      "Order": "73",
      "Dataset": "ADEG",
      "Variable": "AVALCA1N",
      "Label": "Analysis Value Category 1 (N)",
      "Data Type": "integer",
      "Length": "8",
      "Mandatory": "No",
      "Has No Data": "No"
    },
    {
      "Order": "74",
      "Dataset": "ADEG",
      "Variable": "BASE",
      "Label": "Baseline Value",
      "Data Type": "float",
      "Length": "12",
      "Significant Digits": "8",
      "Mandatory": "No",
      "Role": "Analysis Parameter Variables for BDS Datasets",
      "Has No Data": "No"
    },
    {
      "Order": "75",
      "Dataset": "ADEG",
      "Variable": "BASEC",
      "Label": "Baseline Value (C)",
      "Data Type": "text",
      "Length": "3",
      "Mandatory": "No",
      "Role": "Analysis Parameter Variables for BDS Datasets",
      "Has No Data": "No"
    },
    {
      "Order": "76",
      "Dataset": "ADEG",
      "Variable": "BASETYPE",
      "Label": "Baseline Type",
      "Data Type": "text",
      "Length": "36",
      "Mandatory": "No",
      "Role": "Analysis Parameter Variables for BDS Datasets",
      "Has No Data": "No"
    },
    {
      "Order": "77",
      "Dataset": "ADEG",
      "Variable": "CHG",
      "Label": "Change from Baseline",
      "Data Type": "float",
      "Length": "12",
      "Significant Digits": "8",
      "Mandatory": "No",
      "Role": "Analysis Parameter Variables for BDS Datasets",
      "Has No Data": "No"
    },
    {
      "Order": "78",
      "Dataset": "ADEG",
      "Variable": "CHGCAT1",
      "Label": "Change from Baseline Category 1",
      "Data Type": "text",
      "Length": "12",
      "Mandatory": "No",
      "Has No Data": "No"
    },
    {
      "Order": "79",
      "Dataset": "ADEG",
      "Variable": "CHGCAT1N",
      "Label": "Change from Baseline Category 1 (N)",
      "Data Type": "integer",
      "Length": "8",
      "Mandatory": "No",
      "Has No Data": "No"
    },
    {
      "Order": "80",
      "Dataset": "ADEG",
      "Variable": "PCHG",
      "Label": "Percent Change from Baseline",
      "Data Type": "float",
      "Length": "11",
      "Significant Digits": "8",
      "Mandatory": "No",
      "Role": "Analysis Parameter Variables for BDS Datasets",
      "Has No Data": "No"
    },
    {
      "Order": "81",
      "Dataset": "ADEG",
      "Variable": "DTYPE",
      "Label": "Derivation Type",
      "Data Type": "text",
      "Length": "7",
      "Mandatory": "No",
      "Role": "Analysis Descriptor Variables for BDS Datasets",
      "Has No Data": "No"
    },
    {
      "Order": "82",
      "Dataset": "ADEG",
      "Variable": "ANRIND",
      "Label": "Analysis Reference Range Indicator",
      "Data Type": "text",
      "Length": "6",
      "Mandatory": "No",
      "Role": "Toxicity and Range Variables for BDS Datasets",
      "Has No Data": "No"
    },
    {
      "Order": "83",
      "Dataset": "ADEG",
      "Variable": "BNRIND",
      "Label": "Baseline Reference Range Indicator",
      "Data Type": "text",
      "Length": "6",
      "Mandatory": "No",
      "Role": "Toxicity and Range Variables for BDS Datasets",
      "Has No Data": "No"
    },
    {
      "Order": "84",
      "Dataset": "ADEG",
      "Variable": "ANRLO",
      "Label": "Analysis Normal Range Lower Limit",
      "Data Type": "integer",
      "Length": "8",
      "Mandatory": "No",
      "Role": "Toxicity and Range Variables for BDS Datasets",
      "Has No Data": "No"
    },
    {
      "Order": "85",
      "Dataset": "ADEG",
      "Variable": "ANRHI",
      "Label": "Analysis Normal Range Upper Limit",
      "Data Type": "integer",
      "Length": "8",
      "Mandatory": "No",
      "Role": "Toxicity and Range Variables for BDS Datasets",
      "Has No Data": "No"
    },
    {
      "Order": "86",
      "Dataset": "ADEG",
      "Variable": "ABLFL",
      "Label": "Baseline Record Flag",
      "Data Type": "text",
      "Length": "1",
      "Mandatory": "No",
      "Role": "Flag Variables for BDS Datasets",
      "Has No Data": "No"
    },
    {
      "Order": "87",
      "Dataset": "ADEG",
      "Variable": "ANL01FL",
      "Label": "Analysis Flag 01",
      "Data Type": "text",
      "Length": "1",
      "Mandatory": "No",
      "Has No Data": "No"
    },
    {
      "Order": "88",
      "Dataset": "ADEG",
      "Variable": "ONTRTFL",
      "Label": "On Treatment Record Flag",
      "Data Type": "text",
      "Length": "1",
      "Mandatory": "No",
      "Role": "Flag Variables for BDS Datasets",
      "Has No Data": "No"
    },
    {
      "Order": "89",
      "Dataset": "ADEG",
      "Variable": "EGSEQ",
      "Label": "Sequence Number",
      "Data Type": "integer",
      "Length": "8",
      "Mandatory": "No",
      "Has No Data": "No"
    },
    {
      "Order": "90",
      "Dataset": "ADEG",
      "Variable": "EGTESTCD",
      "Label": "ECG Test or Examination Short Name",
      "Data Type": "text",
      "Length": "6",
      "Mandatory": "No",
      "Has No Data": "No"
    },
    {
      "Order": "91",
      "Dataset": "ADEG",
      "Variable": "EGTEST",
      "Label": "ECG Test or Examination Name",
      "Data Type": "text",
      "Length": "18",
      "Mandatory": "No",
      "Has No Data": "No"
    },
    {
      "Order": "92",
      "Dataset": "ADEG",
      "Variable": "EGORRES",
      "Label": "Result or Finding in Original Units",
      "Data Type": "text",
      "Length": "8",
      "Mandatory": "No",
      "Has No Data": "No"
    },
    {
      "Order": "93",
      "Dataset": "ADEG",
      "Variable": "EGORRESU",
      "Label": "Original Units",
      "Data Type": "text",
      "Length": "9",
      "Mandatory": "No",
      "Has No Data": "No"
    },
    {
      "Order": "94",
      "Dataset": "ADEG",
      "Variable": "EGSTRESC",
      "Label": "Character Result/Finding in Std Format",
      "Data Type": "text",
      "Length": "8",
      "Mandatory": "No",
      "Has No Data": "No"
    },
    {
      "Order": "95",
      "Dataset": "ADEG",
      "Variable": "EGSTRESN",
      "Label": "Numeric Result/Finding in Standard Units",
      "Data Type": "integer",
      "Length": "8",
      "Mandatory": "No",
      "Has No Data": "No"
    },
    {
      "Order": "96",
      "Dataset": "ADEG",
      "Variable": "EGSTRESU",
      "Label": "Standard Units",
      "Data Type": "text",
      "Length": "9",
      "Mandatory": "No",
      "Has No Data": "No"
    },
    {
      "Order": "97",
      "Dataset": "ADEG",
      "Variable": "EGSTAT",
      "Label": "Completion Status",
      "Data Type": "text",
      "Length": "8",
      "Mandatory": "No",
      "Has No Data": "No"
    },
    {
      "Order": "98",
      "Dataset": "ADEG",
      "Variable": "EGLOC",
      "Label": "Lead Location Used for Measurement",
      "Data Type": "text",
      "Length": "1",
      "Mandatory": "No",
      "Has No Data": "No"
    },
    {
      "Order": "99",
      "Dataset": "ADEG",
      "Variable": "EGBLFL",
      "Label": "Baseline Flag",
      "Data Type": "text",
      "Length": "1",
      "Mandatory": "No",
      "Has No Data": "No"
    },
    {
      "Order": "100",
      "Dataset": "ADEG",
      "Variable": "VISITNUM",
      "Label": "Visit Number",
      "Data Type": "float",
      "Length": "4",
      "Significant Digits": "1",
      "Mandatory": "No",
      "Has No Data": "No"
    },
    {
      "Order": "101",
      "Dataset": "ADEG",
      "Variable": "VISIT",
      "Label": "Visit Name",
      "Data Type": "text",
      "Length": "19",
      "Mandatory": "No",
      "Has No Data": "No"
    },
    {
      "Order": "102",
      "Dataset": "ADEG",
      "Variable": "VISITDY",
      "Label": "Planned Study Day of Visit",
      "Data Type": "integer",
      "Length": "8",
      "Mandatory": "No",
      "Has No Data": "No"
    },
    {
      "Order": "103",
      "Dataset": "ADEG",
      "Variable": "EGDTC",
      "Label": "Date/Time of ECG",
      "Data Type": "datetime",
      "Mandatory": "No",
      "Has No Data": "No"
    },
    {
      "Order": "104",
      "Dataset": "ADEG",
      "Variable": "EGDY",
      "Label": "Study Day of ECG",
      "Data Type": "integer",
      "Length": "8",
      "Mandatory": "No",
      "Has No Data": "No"
    },
    {
      "Order": "105",
      "Dataset": "ADEG",
      "Variable": "EGTPT",
      "Label": "Planned Time Point Name",
      "Data Type": "text",
      "Length": "30",
      "Mandatory": "No",
      "Has No Data": "No"
    },
    {
      "Order": "106",
      "Dataset": "ADEG",
      "Variable": "EGTPTNUM",
      "Label": "Planned Time Point Number",
      "Data Type": "integer",
      "Length": "8",
      "Mandatory": "No",
      "Has No Data": "No"
    },
    {
      "Order": "107",
      "Dataset": "ADEG",
      "Variable": "EGELTM",
      "Label": "Planned Elapsed Time from Time Point Ref",
      "Data Type": "text",
      "Length": "4",
      "Mandatory": "No",
      "Has No Data": "No"
    },
    {
      "Order": "108",
      "Dataset": "ADEG",
      "Variable": "EGTPTREF",
      "Label": "Time Point Reference",
      "Data Type": "text",
      "Length": "16",
      "Mandatory": "No",
      "Has No Data": "No"
    },
    {
      "Order": "109",
      "Dataset": "ADEG",
      "Variable": "TEMP",
      "Label": "Temp",
      "Data Type": "text",
      "Length": "3",
      "Mandatory": "No",
      "Has No Data": "No"
    },
    {
      "Order": "1",
      "Dataset": "ADEX",
      "Variable": "STUDYID",
      "Label": "Study Identifier",
      "Data Type": "text",
      "Length": "12",
      "Mandatory": "Yes",
      "Role": "Identifier Variables for BDS Datasets",
      "Has No Data": "No"
    },
    {
      "Order": "2",
      "Dataset": "ADEX",
      "Variable": "USUBJID",
      "Label": "Unique Subject Identifier",
      "Data Type": "text",
      "Length": "11",
      "Mandatory": "Yes",
      "Role": "Identifier Variables for BDS Datasets",
      "Has No Data": "No"
    },
    {
      "Order": "3",
      "Dataset": "ADEX",
      "Variable": "SUBJID",
      "Label": "Subject Identifier for the Study",
      "Data Type": "text",
      "Length": "4",
      "Mandatory": "No",
      "Role": "Identifier Variables for BDS Datasets",
      "Has No Data": "No"
    },
    {
      "Order": "4",
      "Dataset": "ADEX",
      "Variable": "SITEID",
      "Label": "Study Site Identifier",
      "Data Type": "text",
      "Length": "3",
      "Mandatory": "No",
      "Role": "Identifier Variables for BDS Datasets",
      "Has No Data": "No"
    },
    {
      "Order": "5",
      "Dataset": "ADEX",
      "Variable": "COUNTRY",
      "Label": "Country",
      "Data Type": "text",
      "Length": "3",
      "Mandatory": "No",
      "Has No Data": "No"
    },
    {
      "Order": "6",
      "Dataset": "ADEX",
      "Variable": "DOMAIN",
      "Label": "Domain Abbreviation",
      "Data Type": "text",
      "Length": "2",
      "Mandatory": "No",
      "Has No Data": "No"
    },
    {
      "Order": "7",
      "Dataset": "ADEX",
      "Variable": "RFSTDTC",
      "Label": "Subject Reference Start Date/Time",
      "Data Type": "datetime",
      "Mandatory": "No",
      "Has No Data": "No"
    },
    {
      "Order": "8",
      "Dataset": "ADEX",
      "Variable": "RFENDTC",
      "Label": "Subject Reference End Date/Time",
      "Data Type": "datetime",
      "Mandatory": "No",
      "Has No Data": "No"
    },
    {
      "Order": "9",
      "Dataset": "ADEX",
      "Variable": "RFXSTDTC",
      "Label": "Date/Time of First Study Treatment",
      "Data Type": "datetime",
      "Mandatory": "No",
      "Has No Data": "No"
    },
    {
      "Order": "10",
      "Dataset": "ADEX",
      "Variable": "RFXENDTC",
      "Label": "Date/Time of Last Study Treatment",
      "Data Type": "datetime",
      "Mandatory": "No",
      "Has No Data": "No"
    },
    {
      "Order": "11",
      "Dataset": "ADEX",
      "Variable": "RFPENDTC",
      "Label": "Date/Time of End of Participation",
      "Data Type": "datetime",
      "Mandatory": "No",
      "Has No Data": "No"
    },
    {
      "Order": "12",
      "Dataset": "ADEX",
      "Variable": "SCRFDT",
      "Label": "Screen Failure Date",
      "Data Type": "integer",
      "Length": "8",
      "Format": "DATE",
      "Mandatory": "No",
      "Has No Data": "No"
    },
    {
      "Order": "13",
      "Dataset": "ADEX",
      "Variable": "FRVDT",
      "Label": "Final Retrieval Visit Date",
      "Data Type": "integer",
      "Length": "8",
      "Format": "DATE",
      "Mandatory": "No",
      "Has No Data": "No"
    },
    {
      "Order": "14",
      "Dataset": "ADEX",
      "Variable": "DTHDTC",
      "Label": "Date/Time of Death",
      "Data Type": "datetime",
      "Mandatory": "No",
      "Has No Data": "No"
    },
    {
      "Order": "15",
      "Dataset": "ADEX",
      "Variable": "DTHADY",
      "Label": "Relative Day of Death",
      "Data Type": "integer",
      "Length": "8",
      "Mandatory": "No",
      "Has No Data": "No"
    },
    {
      "Order": "16",
      "Dataset": "ADEX",
      "Variable": "DTHFL",
      "Label": "Subject Death Flag",
      "Data Type": "text",
      "Length": "1",
      "Mandatory": "No",
      "Has No Data": "No"
    },
    {
      "Order": "17",
      "Dataset": "ADEX",
      "Variable": "LDDTHELD",
      "Label": "Elapsed Days from Last Dose to Death",
      "Data Type": "integer",
      "Length": "8",
      "Mandatory": "No",
      "Has No Data": "No"
    },
    {
      "Order": "18",
      "Dataset": "ADEX",
      "Variable": "LDDTHGR1",
      "Label": "Last Dose to Death - Days Elapsed Grp 1",
      "Data Type": "text",
      "Length": "5",
      "Mandatory": "No",
      "Has No Data": "No"
    },
    {
      "Order": "19",
      "Dataset": "ADEX",
      "Variable": "DTH30FL",
      "Label": "Death Within 30 Days of Last Trt Flag",
      "Data Type": "text",
      "Length": "1",
      "Mandatory": "No",
      "Has No Data": "No"
    },
    {
      "Order": "20",
      "Dataset": "ADEX",
      "Variable": "DTHA30FL",
      "Label": "Death After 30 Days from Last Trt Flag",
      "Data Type": "text",
      "Length": "1",
      "Mandatory": "No",
      "Has No Data": "No"
    },
    {
      "Order": "21",
      "Dataset": "ADEX",
      "Variable": "DTHDOM",
      "Label": "Domain for Date of Death Collection",
      "Data Type": "text",
      "Length": "200",
      "Mandatory": "No",
      "Has No Data": "No"
    },
    {
      "Order": "22",
      "Dataset": "ADEX",
      "Variable": "DTHB30FL",
      "Label": "Death Within 30 Days of First Trt Flag",
      "Data Type": "text",
      "Length": "1",
      "Mandatory": "No",
      "Has No Data": "No"
    },
    {
      "Order": "23",
      "Dataset": "ADEX",
      "Variable": "ASEQ",
      "Label": "Analysis Sequence Number",
      "Data Type": "integer",
      "Length": "8",
      "Mandatory": "No",
      "Role": "Identifier Variables for BDS Datasets",
      "Has No Data": "No"
    },
    {
      "Order": "24",
      "Dataset": "ADEX",
      "Variable": "REGION1",
      "Label": "Geographic Region 1",
      "Data Type": "text",
      "Length": "2",
      "Mandatory": "No",
      "Has No Data": "No"
    },
    {
      "Order": "25",
      "Dataset": "ADEX",
      "Variable": "DMDTC",
      "Label": "Date/Time of Collection",
      "Data Type": "datetime",
      "Mandatory": "No",
      "Has No Data": "No"
    },
    {
      "Order": "26",
      "Dataset": "ADEX",
      "Variable": "DMDY",
      "Label": "Study Day of Collection",
      "Data Type": "integer",
      "Length": "8",
      "Mandatory": "No",
      "Has No Data": "No"
    },
    {
      "Order": "27",
      "Dataset": "ADEX",
      "Variable": "AGE",
      "Label": "Age",
      "Data Type": "integer",
      "Length": "8",
      "Mandatory": "No",
      "Role": "ADSL Subject Demographics Variables",
      "Has No Data": "No"
    },
    {
      "Order": "28",
      "Dataset": "ADEX",
      "Variable": "AGEU",
      "Label": "Age Units",
      "Data Type": "text",
      "Length": "5",
      "Mandatory": "No",
      "Role": "ADSL Subject Demographics Variables",
      "Has No Data": "No"
    },
    {
      "Order": "29",
      "Dataset": "ADEX",
      "Variable": "AGEGR1",
      "Label": "Pooled Age Group 1",
      "Data Type": "integer",
      "Length": "8",
      "Mandatory": "No",
      "Has No Data": "No"
    },
    {
      "Order": "30",
      "Dataset": "ADEX",
      "Variable": "SEX",
      "Label": "Sex",
      "Data Type": "text",
      "Length": "1",
      "Mandatory": "No",
      "Role": "ADSL Subject Demographics Variables",
      "Has No Data": "No"
    },
    {
      "Order": "31",
      "Dataset": "ADEX",
      "Variable": "RACE",
      "Label": "Race",
      "Data Type": "text",
      "Length": "32",
      "Mandatory": "No",
      "Role": "ADSL Subject Demographics Variables",
      "Has No Data": "No"
    },
    {
      "Order": "32",
      "Dataset": "ADEX",
      "Variable": "RACEGR1",
      "Label": "Pooled Race Group 1",
      "Data Type": "text",
      "Length": "9",
      "Mandatory": "No",
      "Has No Data": "No"
    },
    {
      "Order": "33",
      "Dataset": "ADEX",
      "Variable": "ETHNIC",
      "Label": "Ethnicity",
      "Data Type": "text",
      "Length": "22",
      "Mandatory": "No",
      "Has No Data": "No"
    },
    {
      "Order": "34",
      "Dataset": "ADEX",
      "Variable": "SAFFL",
      "Label": "Safety Population Flag",
      "Data Type": "text",
      "Length": "1",
      "Mandatory": "No",
      "Role": "ADSL Population Indicator Variables",
      "Has No Data": "No"
    },
    {
      "Order": "35",
      "Dataset": "ADEX",
      "Variable": "ARM",
      "Label": "Description of Planned Arm",
      "Data Type": "text",
      "Length": "20",
      "Mandatory": "No",
      "Role": "ADSL Treatment Variables",
      "Has No Data": "No"
    },
    {
      "Order": "36",
      "Dataset": "ADEX",
      "Variable": "ARMCD",
      "Label": "Planned Arm Code",
      "Data Type": "text",
      "Length": "6",
      "Mandatory": "No",
      "Has No Data": "No"
    },
    {
      "Order": "37",
      "Dataset": "ADEX",
      "Variable": "ACTARM",
      "Label": "Description of Actual Arm",
      "Data Type": "text",
      "Length": "20",
      "Mandatory": "No",
      "Role": "ADSL Treatment Variables",
      "Has No Data": "No"
    },
    {
      "Order": "38",
      "Dataset": "ADEX",
      "Variable": "ACTARMCD",
      "Label": "Actual Arm Code",
      "Data Type": "text",
      "Length": "6",
      "Mandatory": "No",
      "Has No Data": "No"
    },
    {
      "Order": "39",
      "Dataset": "ADEX",
      "Variable": "TRT01P",
      "Label": "Planned Treatment for Period 01",
      "Data Type": "text",
      "Length": "20",
      "Mandatory": "No",
      "Has No Data": "No"
    },
    {
      "Order": "40",
      "Dataset": "ADEX",
      "Variable": "TRT01A",
      "Label": "Actual Treatment for Period 01",
      "Data Type": "text",
      "Length": "20",
      "Mandatory": "No",
      "Has No Data": "No"
    },
    {
      "Order": "41",
      "Dataset": "ADEX",
      "Variable": "TRTSDT",
      "Label": "Date of First Exposure to Treatment",
      "Data Type": "integer",
      "Length": "8",
      "Format": "DATE",
      "Mandatory": "No",
      "Role": "ADSL Treatment Timing Variables",
      "Has No Data": "No"
    },
    {
      "Order": "42",
      "Dataset": "ADEX",
      "Variable": "TRTSDTM",
      "Label": "Datetime of First Exposure to Treatment",
      "Data Type": "integer",
      "Length": "8",
      "Format": "DATETIME",
      "Mandatory": "No",
      "Role": "ADSL Treatment Timing Variables",
      "Has No Data": "No"
    },
    {
      "Order": "43",
      "Dataset": "ADEX",
      "Variable": "TRTSTMF",
      "Label": "Time of First Exposure Imput. Flag",
      "Data Type": "text",
      "Length": "1",
      "Mandatory": "No",
      "Role": "ADSL Treatment Timing Variables",
      "Has No Data": "No"
    },
    {
      "Order": "44",
      "Dataset": "ADEX",
      "Variable": "TRTEDT",
      "Label": "Date of Last Exposure to Treatment",
      "Data Type": "integer",
      "Length": "8",
      "Format": "DATE",
      "Mandatory": "No",
      "Role": "ADSL Treatment Timing Variables",
      "Has No Data": "No"
    },
    {
      "Order": "45",
      "Dataset": "ADEX",
      "Variable": "TRTEDTM",
      "Label": "Datetime of Last Exposure to Treatment",
      "Data Type": "integer",
      "Length": "8",
      "Format": "DATETIME",
      "Mandatory": "No",
      "Role": "ADSL Treatment Timing Variables",
      "Has No Data": "No"
    },
    {
      "Order": "46",
      "Dataset": "ADEX",
      "Variable": "TRTETMF",
      "Label": "Time of Last Exposure Imput. Flag",
      "Data Type": "text",
      "Length": "1",
      "Mandatory": "No",
      "Role": "ADSL Treatment Timing Variables",
      "Has No Data": "No"
    },
    {
      "Order": "47",
      "Dataset": "ADEX",
      "Variable": "EOSSTT",
      "Label": "End of Study Status",
      "Data Type": "text",
      "Length": "12",
      "Mandatory": "No",
      "Role": "ADSL Subject-Level Trial Experience Variables",
      "Has No Data": "No"
    },
    {
      "Order": "48",
      "Dataset": "ADEX",
      "Variable": "EOSDT",
      "Label": "End of Study Date",
      "Data Type": "integer",
      "Length": "8",
      "Format": "DATE",
      "Mandatory": "No",
      "Role": "ADSL Subject-Level Trial Experience Variables",
      "Has No Data": "No"
    },
    {
      "Order": "49",
      "Dataset": "ADEX",
      "Variable": "RFICDTC",
      "Label": "Date/Time of Informed Consent",
      "Data Type": "text",
      "Length": "1",
      "Mandatory": "No",
      "Has No Data": "No"
    },
    {
      "Order": "50",
      "Dataset": "ADEX",
      "Variable": "RANDDT",
      "Label": "Date of Randomization",
      "Data Type": "integer",
      "Length": "8",
      "Format": "DATE",
      "Mandatory": "No",
      "Role": "ADSL Subject-Level Trial Experience Variables",
      "Has No Data": "No"
    },
    {
      "Order": "51",
      "Dataset": "ADEX",
      "Variable": "LSTALVDT",
      "Label": "Date Last Known Alive",
      "Data Type": "integer",
      "Length": "8",
      "Format": "DATE",
      "Mandatory": "No",
      "Role": "ADSL Subject-Level Trial Experience Variables",
      "Has No Data": "No"
    },
    {
      "Order": "52",
      "Dataset": "ADEX",
      "Variable": "TRTDURD",
      "Label": "Total Treatment Duration (Days)",
      "Data Type": "integer",
      "Length": "8",
      "Mandatory": "No",
      "Role": "ADSL Subject-Level Trial Experience Variables",
      "Has No Data": "No"
    },
    {
      "Order": "53",
      "Dataset": "ADEX",
      "Variable": "DTHDT",
      "Label": "Date of Death",
      "Data Type": "integer",
      "Length": "8",
      "Format": "DATE",
      "Mandatory": "No",
      "Role": "ADSL Subject-Level Trial Experience Variables",
      "Has No Data": "No"
    },
    {
      "Order": "54",
      "Dataset": "ADEX",
      "Variable": "DTHDTF",
      "Label": "Date of Death Imputation Flag",
      "Data Type": "text",
      "Length": "1",
      "Mandatory": "No",
      "Role": "ADSL Subject-Level Trial Experience Variables",
      "Has No Data": "No"
    },
    {
      "Order": "55",
      "Dataset": "ADEX",
      "Variable": "DTHCAUS",
      "Label": "Cause of Death",
      "Data Type": "text",
      "Length": "200",
      "Mandatory": "No",
      "Has No Data": "No"
    },
    {
      "Order": "56",
      "Dataset": "ADEX",
      "Variable": "DTHCGR1",
      "Label": "Cause of Death Reason 1",
      "Data Type": "text",
      "Length": "200",
      "Mandatory": "No",
      "Has No Data": "No"
    },
    {
      "Order": "57",
      "Dataset": "ADEX",
      "Variable": "EXTRT",
      "Label": "Name of Treatment",
      "Data Type": "text",
      "Length": "10",
      "Mandatory": "No",
      "Has No Data": "No"
    },
    {
      "Order": "58",
      "Dataset": "ADEX",
      "Variable": "EXDOSE",
      "Label": "Dose",
      "Data Type": "integer",
      "Length": "8",
      "Mandatory": "No",
      "Has No Data": "No"
    },
    {
      "Order": "59",
      "Dataset": "ADEX",
      "Variable": "EXDOSFRM",
      "Label": "Dose Form",
      "Data Type": "text",
      "Length": "5",
      "Mandatory": "No",
      "Has No Data": "No"
    },
    {
      "Order": "60",
      "Dataset": "ADEX",
      "Variable": "EXDOSFRQ",
      "Label": "Dosing Frequency per Interval",
      "Data Type": "text",
      "Length": "2",
      "Mandatory": "No",
      "Has No Data": "No"
    },
    {
      "Order": "61",
      "Dataset": "ADEX",
      "Variable": "EXROUTE",
      "Label": "Route of Administration",
      "Data Type": "text",
      "Length": "11",
      "Mandatory": "No",
      "Has No Data": "No"
    },
    {
      "Order": "62",
      "Dataset": "ADEX",
      "Variable": "EXADJ",
      "Label": "Reason for Dose Adjustment",
      "Data Type": "text",
      "Length": "16",
      "Mandatory": "No",
      "Has No Data": "No"
    },
    {
      "Order": "63",
      "Dataset": "ADEX",
      "Variable": "EXSTDTC",
      "Label": "Start Date/Time of Treatment",
      "Data Type": "datetime",
      "Mandatory": "No",
      "Has No Data": "No"
    },
    {
      "Order": "64",
      "Dataset": "ADEX",
      "Variable": "EXENDTC",
      "Label": "End Date/Time of Treatment",
      "Data Type": "datetime",
      "Mandatory": "No",
      "Has No Data": "No"
    },
    {
      "Order": "65",
      "Dataset": "ADEX",
      "Variable": "EXSTDY",
      "Label": "Study Day of Start of Treatment",
      "Data Type": "integer",
      "Length": "8",
      "Mandatory": "No",
      "Has No Data": "No"
    },
    {
      "Order": "66",
      "Dataset": "ADEX",
      "Variable": "EXENDY",
      "Label": "Study Day of End of Treatment",
      "Data Type": "integer",
      "Length": "8",
      "Mandatory": "No",
      "Has No Data": "No"
    },
    {
      "Order": "67",
      "Dataset": "ADEX",
      "Variable": "EXSEQ",
      "Label": "Sequence Number",
      "Data Type": "integer",
      "Length": "8",
      "Mandatory": "No",
      "Has No Data": "No"
    },
    {
      "Order": "68",
      "Dataset": "ADEX",
      "Variable": "ASTDT",
      "Label": "Analysis Start Date",
      "Data Type": "integer",
      "Length": "8",
      "Format": "DATE",
      "Mandatory": "No",
      "Role": "Timing Variables for BDS Datasets",
      "Has No Data": "No"
    },
    {
      "Order": "69",
      "Dataset": "ADEX",
      "Variable": "AENDT",
      "Label": "Analysis End Date",
      "Data Type": "integer",
      "Length": "8",
      "Format": "DATE",
      "Mandatory": "No",
      "Role": "Timing Variables for BDS Datasets",
      "Has No Data": "No"
    },
    {
      "Order": "70",
      "Dataset": "ADEX",
      "Variable": "EXDURD",
      "Label": "Duration of Treatment (Days)",
      "Data Type": "integer",
      "Length": "8",
      "Mandatory": "No",
      "Has No Data": "No"
    },
    {
      "Order": "71",
      "Dataset": "ADEX",
      "Variable": "EXDOSU",
      "Label": "Dose Units",
      "Data Type": "text",
      "Length": "2",
      "Mandatory": "No",
      "Has No Data": "No"
    },
    {
      "Order": "72",
      "Dataset": "ADEX",
      "Variable": "VISITNUM",
      "Label": "Visit Number",
      "Data Type": "integer",
      "Length": "8",
      "Mandatory": "No",
      "Has No Data": "No"
    },
    {
      "Order": "73",
      "Dataset": "ADEX",
      "Variable": "VISIT",
      "Label": "Visit Name",
      "Data Type": "text",
      "Length": "8",
      "Mandatory": "No",
      "Has No Data": "No"
    },
    {
      "Order": "74",
      "Dataset": "ADEX",
      "Variable": "VISITDY",
      "Label": "Planned Study Day of Visit",
      "Data Type": "integer",
      "Length": "8",
      "Mandatory": "No",
      "Has No Data": "No"
    },
    {
      "Order": "75",
      "Dataset": "ADEX",
      "Variable": "EXPLDOS",
      "Label": "Planned Dose",
      "Data Type": "integer",
      "Length": "8",
      "Mandatory": "No",
      "Has No Data": "No"
    },
    {
      "Order": "76",
      "Dataset": "ADEX",
      "Variable": "ASTDTM",
      "Label": "Analysis Start Datetime",
      "Data Type": "integer",
      "Length": "8",
      "Format": "DATETIME",
      "Mandatory": "No",
      "Role": "Timing Variables for BDS Datasets",
      "Has No Data": "No"
    },
    {
      "Order": "77",
      "Dataset": "ADEX",
      "Variable": "ASTDTF",
      "Label": "Analysis Start Date Imputation Flag",
      "Data Type": "text",
      "Length": "1",
      "Mandatory": "No",
      "Role": "Timing Variables for BDS Datasets",
      "Has No Data": "No"
    },
    {
      "Order": "78",
      "Dataset": "ADEX",
      "Variable": "ASTTMF",
      "Label": "Analysis Start Time Imputation Flag",
      "Data Type": "text",
      "Length": "1",
      "Mandatory": "No",
      "Role": "Timing Variables for BDS Datasets",
      "Has No Data": "No"
    },
    {
      "Order": "79",
      "Dataset": "ADEX",
      "Variable": "AENDTM",
      "Label": "Analysis End Datetime",
      "Data Type": "integer",
      "Length": "8",
      "Format": "DATETIME",
      "Mandatory": "No",
      "Role": "Timing Variables for BDS Datasets",
      "Has No Data": "No"
    },
    {
      "Order": "80",
      "Dataset": "ADEX",
      "Variable": "AENDTF",
      "Label": "Analysis End Date Imputation Flag",
      "Data Type": "text",
      "Length": "1",
      "Mandatory": "No",
      "Role": "Timing Variables for BDS Datasets",
      "Has No Data": "No"
    },
    {
      "Order": "81",
      "Dataset": "ADEX",
      "Variable": "AENTMF",
      "Label": "Analysis End Time Imputation Flag",
      "Data Type": "text",
      "Length": "1",
      "Mandatory": "No",
      "Role": "Timing Variables for BDS Datasets",
      "Has No Data": "No"
    },
    {
      "Order": "82",
      "Dataset": "ADEX",
      "Variable": "ASTDY",
      "Label": "Analysis Start Relative Day",
      "Data Type": "integer",
      "Length": "8",
      "Mandatory": "No",
      "Role": "Timing Variables for BDS Datasets",
      "Has No Data": "No"
    },
    {
      "Order": "83",
      "Dataset": "ADEX",
      "Variable": "AENDY",
      "Label": "Analysis End Relative Day",
      "Data Type": "integer",
      "Length": "8",
      "Mandatory": "No",
      "Role": "Timing Variables for BDS Datasets",
      "Has No Data": "No"
    },
    {
      "Order": "84",
      "Dataset": "ADEX",
      "Variable": "DOSEO",
      "Label": "Dose O",
      "Data Type": "integer",
      "Length": "8",
      "Mandatory": "No",
      "Has No Data": "No"
    },
    {
      "Order": "85",
      "Dataset": "ADEX",
      "Variable": "PDOSEO",
      "Label": "PDose O",
      "Data Type": "integer",
      "Length": "8",
      "Mandatory": "No",
      "Has No Data": "No"
    },
    {
      "Order": "86",
      "Dataset": "ADEX",
      "Variable": "PARAMCD",
      "Label": "Parameter Code",
      "Data Type": "text",
      "Length": "7",
      "Mandatory": "Yes",
      "Role": "Analysis Parameter Variables for BDS Datasets",
      "Has No Data": "No"
    },
    {
      "Order": "87",
      "Dataset": "ADEX",
      "Variable": "AVAL",
      "Label": "Analysis Value",
      "Data Type": "float",
      "Length": "13",
      "Significant Digits": "8",
      "Mandatory": "No",
      "Role": "Analysis Parameter Variables for BDS Datasets",
      "Has No Data": "No"
    },
    {
      "Order": "88",
      "Dataset": "ADEX",
      "Variable": "AVALC",
      "Label": "Analysis Value (C)",
      "Data Type": "text",
      "Length": "1",
      "Mandatory": "No",
      "Role": "Analysis Parameter Variables for BDS Datasets",
      "Has No Data": "No"
    },
    {
      "Order": "89",
      "Dataset": "ADEX",
      "Variable": "PARCAT1",
      "Label": "Parameter Category 1",
      "Data Type": "text",
      "Length": "10",
      "Mandatory": "No",
      "Has No Data": "No"
    },
    {
      "Order": "90",
      "Dataset": "ADEX",
      "Variable": "PARAM",
      "Label": "Parameter",
      "Data Type": "text",
      "Length": "58",
      "Mandatory": "Yes",
      "Role": "Analysis Parameter Variables for BDS Datasets",
      "Has No Data": "No"
    },
    {
      "Order": "91",
      "Dataset": "ADEX",
      "Variable": "PARAMN",
      "Label": "Parameter (N)",
      "Data Type": "integer",
      "Length": "8",
      "Mandatory": "No",
      "Role": "Analysis Parameter Variables for BDS Datasets",
      "Has No Data": "No"
    },
    {
      "Order": "92",
      "Dataset": "ADEX",
      "Variable": "AVALCAT1",
      "Label": "Analysis Value Category 1",
      "Data Type": "text",
      "Length": "19",
      "Mandatory": "No",
      "Has No Data": "No"
    },
    {
      "Order": "1",
      "Dataset": "ADFACE_V",
      "Variable": "STUDYID",
      "Label": "Study Identifier",
      "Data Type": "text",
      "Length": "3",
      "Mandatory": "Yes",
      "Role": "Identifier Variables for BDS Datasets",
      "Has No Data": "No"
    },
    {
      "Order": "2",
      "Dataset": "ADFACE_V",
      "Variable": "USUBJID",
      "Label": "Unique Subject Identifier",
      "Data Type": "text",
      "Length": "8",
      "Mandatory": "Yes",
      "Role": "Identifier Variables for BDS Datasets",
      "Has No Data": "No"
    },
    {
      "Order": "3",
      "Dataset": "ADFACE_V",
      "Variable": "SUBJID",
      "Label": "Subject Identifier for the Study",
      "Data Type": "text",
      "Length": "4",
      "Mandatory": "No",
      "Role": "Identifier Variables for BDS Datasets",
      "Has No Data": "No"
    },
    {
      "Order": "4",
      "Dataset": "ADFACE_V",
      "Variable": "SITEID",
      "Label": "Study Site Identifier",
      "Data Type": "text",
      "Length": "4",
      "Mandatory": "No",
      "Role": "Identifier Variables for BDS Datasets",
      "Has No Data": "No"
    },
    {
      "Order": "5",
      "Dataset": "ADFACE_V",
      "Variable": "AGE",
      "Label": "Age",
      "Data Type": "integer",
      "Length": "8",
      "Mandatory": "No",
      "Role": "ADSL Subject Demographics Variables",
      "Has No Data": "No"
    },
    {
      "Order": "6",
      "Dataset": "ADFACE_V",
      "Variable": "AGEU",
      "Label": "Age Units",
      "Data Type": "text",
      "Length": "5",
      "Mandatory": "No",
      "Role": "ADSL Subject Demographics Variables",
      "Has No Data": "No"
    },
    {
      "Order": "7",
      "Dataset": "ADFACE_V",
      "Variable": "SEX",
      "Label": "Sex",
      "Data Type": "text",
      "Length": "1",
      "Mandatory": "No",
      "Role": "ADSL Subject Demographics Variables",
      "Has No Data": "No"
    },
    {
      "Order": "8",
      "Dataset": "ADFACE_V",
      "Variable": "RACE",
      "Label": "Race",
      "Data Type": "text",
      "Length": "25",
      "Mandatory": "No",
      "Role": "ADSL Subject Demographics Variables",
      "Has No Data": "No"
    },
    {
      "Order": "9",
      "Dataset": "ADFACE_V",
      "Variable": "SAFFL",
      "Label": "Safety Population Flag",
      "Data Type": "text",
      "Length": "1",
      "Mandatory": "No",
      "Role": "ADSL Population Indicator Variables",
      "Has No Data": "No"
    },
    {
      "Order": "10",
      "Dataset": "ADFACE_V",
      "Variable": "ARM",
      "Label": "Description of Planned Arm",
      "Data Type": "text",
      "Length": "19",
      "Mandatory": "No",
      "Role": "ADSL Treatment Variables",
      "Has No Data": "No"
    },
    {
      "Order": "11",
      "Dataset": "ADFACE_V",
      "Variable": "ARMCD",
      "Label": "Planned Arm Code",
      "Data Type": "text",
      "Length": "5",
      "Mandatory": "No",
      "Has No Data": "No"
    },
    {
      "Order": "12",
      "Dataset": "ADFACE_V",
      "Variable": "ACTARM",
      "Label": "Description of Actual Arm",
      "Data Type": "text",
      "Length": "19",
      "Mandatory": "No",
      "Role": "ADSL Treatment Variables",
      "Has No Data": "No"
    },
    {
      "Order": "13",
      "Dataset": "ADFACE_V",
      "Variable": "ACTARMCD",
      "Label": "Actual Arm Code",
      "Data Type": "text",
      "Length": "5",
      "Mandatory": "No",
      "Has No Data": "No"
    },
    {
      "Order": "14",
      "Dataset": "ADFACE_V",
      "Variable": "TRTP",
      "Label": "Planned Treatment",
      "Data Type": "text",
      "Length": "9",
      "Mandatory": "No",
      "Role": "Record-Level Treatment Variables for BDS Datasets",
      "Has No Data": "No"
    },
    {
      "Order": "15",
      "Dataset": "ADFACE_V",
      "Variable": "TRTA",
      "Label": "Actual Treatment",
      "Data Type": "text",
      "Length": "9",
      "Mandatory": "No",
      "Role": "Record-Level Treatment Variables for BDS Datasets",
      "Has No Data": "No"
    },
    {
      "Order": "16",
      "Dataset": "ADFACE_V",
      "Variable": "TRT01P",
      "Label": "Planned Treatment for Period 01",
      "Data Type": "text",
      "Length": "9",
      "Mandatory": "No",
      "Has No Data": "No"
    },
    {
      "Order": "17",
      "Dataset": "ADFACE_V",
      "Variable": "TRT01A",
      "Label": "Actual Treatment for Period 01",
      "Data Type": "text",
      "Length": "9",
      "Mandatory": "No",
      "Has No Data": "No"
    },
    {
      "Order": "18",
      "Dataset": "ADFACE_V",
      "Variable": "TRT02P",
      "Label": "Planned Treatment for Period 02",
      "Data Type": "text",
      "Length": "9",
      "Mandatory": "No",
      "Has No Data": "No"
    },
    {
      "Order": "19",
      "Dataset": "ADFACE_V",
      "Variable": "TRT02A",
      "Label": "Actual Treatment for Period 02",
      "Data Type": "text",
      "Length": "9",
      "Mandatory": "No",
      "Has No Data": "No"
    },
    {
      "Order": "20",
      "Dataset": "ADFACE_V",
      "Variable": "TRTSDT",
      "Label": "Date of First Exposure to Treatment",
      "Data Type": "integer",
      "Length": "8",
      "Format": "DATE",
      "Mandatory": "No",
      "Role": "ADSL Treatment Timing Variables",
      "Has No Data": "No"
    },
    {
      "Order": "21",
      "Dataset": "ADFACE_V",
      "Variable": "TRTSDTM",
      "Label": "Datetime of First Exposure to Treatment",
      "Data Type": "integer",
      "Length": "8",
      "Format": "DATETIME",
      "Mandatory": "No",
      "Role": "ADSL Treatment Timing Variables",
      "Has No Data": "No"
    },
    {
      "Order": "22",
      "Dataset": "ADFACE_V",
      "Variable": "TRTEDT",
      "Label": "Date of Last Exposure to Treatment",
      "Data Type": "integer",
      "Length": "8",
      "Format": "DATE",
      "Mandatory": "No",
      "Role": "ADSL Treatment Timing Variables",
      "Has No Data": "No"
    },
    {
      "Order": "23",
      "Dataset": "ADFACE_V",
      "Variable": "TRTEDTM",
      "Label": "Datetime of Last Exposure to Treatment",
      "Data Type": "integer",
      "Length": "8",
      "Format": "DATETIME",
      "Mandatory": "No",
      "Role": "ADSL Treatment Timing Variables",
      "Has No Data": "No"
    },
    {
      "Order": "24",
      "Dataset": "ADFACE_V",
      "Variable": "APERSDT",
      "Label": "Period Start Date",
      "Data Type": "integer",
      "Length": "8",
      "Format": "DATE",
      "Mandatory": "No",
      "Role": "Period, Subperiod, and Phase Start and End Timing Variables",
      "Has No Data": "No"
    },
    {
      "Order": "25",
      "Dataset": "ADFACE_V",
      "Variable": "APEREDT",
      "Label": "Period End Date",
      "Data Type": "integer",
      "Length": "8",
      "Format": "DATE",
      "Mandatory": "No",
      "Role": "Period, Subperiod, and Phase Start and End Timing Variables",
      "Has No Data": "No"
    },
    {
      "Order": "26",
      "Dataset": "ADFACE_V",
      "Variable": "ADT",
      "Label": "Analysis Date",
      "Data Type": "integer",
      "Length": "8",
      "Format": "DATE",
      "Mandatory": "No",
      "Role": "Timing Variables for BDS Datasets",
      "Has No Data": "No"
    },
    {
      "Order": "27",
      "Dataset": "ADFACE_V",
      "Variable": "ADTM",
      "Label": "Analysis Datetime",
      "Data Type": "integer",
      "Length": "8",
      "Format": "DATETIME",
      "Mandatory": "No",
      "Role": "Timing Variables for BDS Datasets",
      "Has No Data": "No"
    },
    {
      "Order": "28",
      "Dataset": "ADFACE_V",
      "Variable": "ADY",
      "Label": "Analysis Relative Day",
      "Data Type": "integer",
      "Length": "8",
      "Mandatory": "No",
      "Role": "Timing Variables for BDS Datasets",
      "Has No Data": "No"
    },
    {
      "Order": "29",
      "Dataset": "ADFACE_V",
      "Variable": "ATPT",
      "Label": "Analysis Timepoint",
      "Data Type": "text",
      "Length": "5",
      "Mandatory": "No",
      "Role": "Timing Variables for BDS Datasets",
      "Has No Data": "No"
    },
    {
      "Order": "30",
      "Dataset": "ADFACE_V",
      "Variable": "ATPTN",
      "Label": "Analysis Timepoint (N)",
      "Data Type": "integer",
      "Length": "8",
      "Mandatory": "No",
      "Role": "Timing Variables for BDS Datasets",
      "Has No Data": "No"
    },
    {
      "Order": "31",
      "Dataset": "ADFACE_V",
      "Variable": "ATPTREF",
      "Label": "Analysis Timepoint Reference",
      "Data Type": "text",
      "Length": "13",
      "Mandatory": "No",
      "Role": "Timing Variables for BDS Datasets",
      "Has No Data": "No"
    },
    {
      "Order": "32",
      "Dataset": "ADFACE_V",
      "Variable": "APERIOD",
      "Label": "Period",
      "Data Type": "integer",
      "Length": "8",
      "Mandatory": "No",
      "Role": "Timing Variables for BDS Datasets",
      "Has No Data": "No"
    },
    {
      "Order": "33",
      "Dataset": "ADFACE_V",
      "Variable": "PARAM",
      "Label": "Parameter",
      "Data Type": "text",
      "Length": "63",
      "Mandatory": "Yes",
      "Role": "Analysis Parameter Variables for BDS Datasets",
      "Has No Data": "No"
    },
    {
      "Order": "34",
      "Dataset": "ADFACE_V",
      "Variable": "PARAMCD",
      "Label": "Parameter Code",
      "Data Type": "text",
      "Length": "8",
      "Mandatory": "Yes",
      "Role": "Analysis Parameter Variables for BDS Datasets",
      "Has No Data": "No"
    },
    {
      "Order": "35",
      "Dataset": "ADFACE_V",
      "Variable": "PARAMN",
      "Label": "Parameter (N)",
      "Data Type": "integer",
      "Length": "8",
      "Mandatory": "No",
      "Role": "Analysis Parameter Variables for BDS Datasets",
      "Has No Data": "No"
    },
    {
      "Order": "36",
      "Dataset": "ADFACE_V",
      "Variable": "PARCAT1",
      "Label": "Parameter Category 1",
      "Data Type": "text",
      "Length": "14",
      "Mandatory": "No",
      "Has No Data": "No"
    },
    {
      "Order": "37",
      "Dataset": "ADFACE_V",
      "Variable": "PARCAT2",
      "Label": "Parameter Category 2",
      "Data Type": "text",
      "Length": "19",
      "Mandatory": "No",
      "Has No Data": "No"
    },
    {
      "Order": "38",
      "Dataset": "ADFACE_V",
      "Variable": "AVAL",
      "Label": "Analysis Value",
      "Data Type": "float",
      "Length": "2",
      "Significant Digits": "1",
      "Mandatory": "No",
      "Role": "Analysis Parameter Variables for BDS Datasets",
      "Has No Data": "No"
    },
    {
      "Order": "39",
      "Dataset": "ADFACE_V",
      "Variable": "AVALC",
      "Label": "Analysis Value (C)",
      "Data Type": "text",
      "Length": "8",
      "Mandatory": "No",
      "Role": "Analysis Parameter Variables for BDS Datasets",
      "Has No Data": "No"
    },
    {
      "Order": "40",
      "Dataset": "ADFACE_V",
      "Variable": "ANL01FL",
      "Label": "Analysis Flag 01",
      "Data Type": "text",
      "Length": "1",
      "Mandatory": "No",
      "Has No Data": "No"
    },
    {
      "Order": "41",
      "Dataset": "ADFACE_V",
      "Variable": "ANL02FL",
      "Label": "Analysis Flag 02",
      "Data Type": "text",
      "Length": "1",
      "Mandatory": "No",
      "Has No Data": "No"
    },
    {
      "Order": "42",
      "Dataset": "ADFACE_V",
      "Variable": "ANL03FL",
      "Label": "Analysis Flag 03",
      "Data Type": "text",
      "Length": "1",
      "Mandatory": "No",
      "Has No Data": "No"
    },
    {
      "Order": "43",
      "Dataset": "ADFACE_V",
      "Variable": "FATEST",
      "Label": "Findings About Test Name",
      "Data Type": "text",
      "Length": "20",
      "Mandatory": "No",
      "Has No Data": "No"
    },
    {
      "Order": "44",
      "Dataset": "ADFACE_V",
      "Variable": "FALNKID",
      "Label": "Link ID",
      "Data Type": "text",
      "Length": "62",
      "Mandatory": "No",
      "Has No Data": "No"
    },
    {
      "Order": "45",
      "Dataset": "ADFACE_V",
      "Variable": "FALNKGRP",
      "Label": "Link Group ID",
      "Data Type": "text",
      "Length": "56",
      "Mandatory": "No",
      "Has No Data": "No"
    },
    {
      "Order": "46",
      "Dataset": "ADFACE_V",
      "Variable": "FATESTCD",
      "Label": "Findings About Test Short Name",
      "Data Type": "text",
      "Length": "8",
      "Mandatory": "No",
      "Has No Data": "No"
    },
    {
      "Order": "47",
      "Dataset": "ADFACE_V",
      "Variable": "FAOBJ",
      "Label": "Object of the Observation",
      "Data Type": "text",
      "Length": "27",
      "Mandatory": "No",
      "Has No Data": "No"
    },
    {
      "Order": "48",
      "Dataset": "ADFACE_V",
      "Variable": "FASTAT",
      "Label": "Completion Status",
      "Data Type": "text",
      "Length": "8",
      "Mandatory": "No",
      "Has No Data": "No"
    },
    {
      "Order": "49",
      "Dataset": "ADFACE_V",
      "Variable": "FAREASND",
      "Label": "Reason Not Performed",
      "Data Type": "text",
      "Length": "41",
      "Mandatory": "No",
      "Has No Data": "No"
    },
    {
      "Order": "50",
      "Dataset": "ADFACE_V",
      "Variable": "FAEVAL",
      "Label": "Evaluator",
      "Data Type": "text",
      "Length": "13",
      "Mandatory": "No",
      "Has No Data": "No"
    },
    {
      "Order": "51",
      "Dataset": "ADFACE_V",
      "Variable": "EPOCH",
      "Label": "Epoch",
      "Data Type": "text",
      "Length": "13",
      "Mandatory": "No",
      "Has No Data": "No"
    },
    {
      "Order": "52",
      "Dataset": "ADFACE_V",
      "Variable": "FAEVINTX",
      "Label": "Evaluation Interval Text",
      "Data Type": "text",
      "Length": "17",
      "Mandatory": "No",
      "Has No Data": "No"
    },
    {
      "Order": "53",
      "Dataset": "ADFACE_V",
      "Variable": "EXDOSE",
      "Label": "Dose",
      "Data Type": "integer",
      "Length": "8",
      "Mandatory": "No",
      "Has No Data": "No"
    },
    {
      "Order": "54",
      "Dataset": "ADFACE_V",
      "Variable": "EXTRT",
      "Label": "Name of Treatment",
      "Data Type": "text",
      "Length": "9",
      "Mandatory": "No",
      "Has No Data": "No"
    },
    {
      "Order": "55",
      "Dataset": "ADFACE_V",
      "Variable": "EXSTDTC",
      "Label": "Start Date/Time of Treatment",
      "Data Type": "datetime",
      "Mandatory": "No",
      "Has No Data": "No"
    },
    {
      "Order": "56",
      "Dataset": "ADFACE_V",
      "Variable": "EXENDTC",
      "Label": "End Date/Time of Treatment",
      "Data Type": "datetime",
      "Mandatory": "No",
      "Has No Data": "No"
    },
    {
      "Order": "57",
      "Dataset": "ADFACE_V",
      "Variable": "FAORRES",
      "Label": "Result or Finding in Original Units",
      "Data Type": "text",
      "Length": "8",
      "Mandatory": "No",
      "Has No Data": "No"
    },
    {
      "Order": "58",
      "Dataset": "ADFACE_V",
      "Variable": "VAX01DT",
      "Label": "Vaccination Date 01",
      "Data Type": "integer",
      "Length": "8",
      "Format": "DATE",
      "Mandatory": "No",
      "Has No Data": "No"
    },
    {
      "Order": "59",
      "Dataset": "ADFACE_V",
      "Variable": "VAX02DT",
      "Label": "Vaccination Date 02",
      "Data Type": "integer",
      "Length": "8",
      "Format": "DATE",
      "Mandatory": "No",
      "Has No Data": "No"
    },
    {
      "Order": "60",
      "Dataset": "ADFACE_V",
      "Variable": "EVENTFL",
      "Label": "Event Value Flag",
      "Data Type": "text",
      "Length": "1",
      "Mandatory": "No",
      "Has No Data": "No"
    },
    {
      "Order": "61",
      "Dataset": "ADFACE_V",
      "Variable": "EVENTDFL",
      "Label": "Day Event Value Flag",
      "Data Type": "text",
      "Length": "1",
      "Mandatory": "No",
      "Has No Data": "No"
    },
    {
      "Order": "1",
      "Dataset": "ADIS_V",
      "Variable": "STUDYID",
      "Label": "Study Identifier",
      "Data Type": "text",
      "Length": "3",
      "Mandatory": "Yes",
      "Role": "Identifier Variables for BDS Datasets",
      "Has No Data": "No"
    },
    {
      "Order": "2",
      "Dataset": "ADIS_V",
      "Variable": "USUBJID",
      "Label": "Unique Subject Identifier",
      "Data Type": "text",
      "Length": "8",
      "Mandatory": "Yes",
      "Role": "Identifier Variables for BDS Datasets",
      "Has No Data": "No"
    },
    {
      "Order": "3",
      "Dataset": "ADIS_V",
      "Variable": "SUBJID",
      "Label": "Subject Identifier for the Study",
      "Data Type": "text",
      "Length": "4",
      "Mandatory": "No",
      "Role": "Identifier Variables for BDS Datasets",
      "Has No Data": "No"
    },
    {
      "Order": "4",
      "Dataset": "ADIS_V",
      "Variable": "SITEID",
      "Label": "Study Site Identifier",
      "Data Type": "text",
      "Length": "4",
      "Mandatory": "No",
      "Role": "Identifier Variables for BDS Datasets",
      "Has No Data": "No"
    },
    {
      "Order": "5",
      "Dataset": "ADIS_V",
      "Variable": "COUNTRY",
      "Label": "Country",
      "Data Type": "text",
      "Length": "3",
      "Mandatory": "No",
      "Has No Data": "No"
    },
    {
      "Order": "6",
      "Dataset": "ADIS_V",
      "Variable": "DOMAIN",
      "Label": "Domain Abbreviation",
      "Data Type": "text",
      "Length": "2",
      "Mandatory": "No",
      "Has No Data": "No"
    },
    {
      "Order": "7",
      "Dataset": "ADIS_V",
      "Variable": "RFSTDTC",
      "Label": "Subject Reference Start Date/Time",
      "Data Type": "datetime",
      "Mandatory": "No",
      "Has No Data": "No"
    },
    {
      "Order": "8",
      "Dataset": "ADIS_V",
      "Variable": "RFENDTC",
      "Label": "Subject Reference End Date/Time",
      "Data Type": "datetime",
      "Mandatory": "No",
      "Has No Data": "No"
    },
    {
      "Order": "9",
      "Dataset": "ADIS_V",
      "Variable": "RFXSTDTC",
      "Label": "Date/Time of First Study Treatment",
      "Data Type": "datetime",
      "Mandatory": "No",
      "Has No Data": "No"
    },
    {
      "Order": "10",
      "Dataset": "ADIS_V",
      "Variable": "RFXENDTC",
      "Label": "Date/Time of Last Study Treatment",
      "Data Type": "datetime",
      "Mandatory": "No",
      "Has No Data": "No"
    },
    {
      "Order": "11",
      "Dataset": "ADIS_V",
      "Variable": "RFPENDTC",
      "Label": "Date/Time of End of Participation",
      "Data Type": "datetime",
      "Mandatory": "No",
      "Has No Data": "No"
    },
    {
      "Order": "12",
      "Dataset": "ADIS_V",
      "Variable": "DTHDTC",
      "Label": "Date/Time of Death",
      "Data Type": "text",
      "Length": "1",
      "Mandatory": "No",
      "Has No Data": "No"
    },
    {
      "Order": "13",
      "Dataset": "ADIS_V",
      "Variable": "DTHFL",
      "Label": "Subject Death Flag",
      "Data Type": "text",
      "Length": "1",
      "Mandatory": "No",
      "Has No Data": "No"
    },
    {
      "Order": "14",
      "Dataset": "ADIS_V",
      "Variable": "REGION1",
      "Label": "Geographic Region 1",
      "Data Type": "text",
      "Length": "2",
      "Mandatory": "No",
      "Has No Data": "No"
    },
    {
      "Order": "15",
      "Dataset": "ADIS_V",
      "Variable": "BRTHDTC",
      "Label": "Date/Time of Birth",
      "Data Type": "datetime",
      "Mandatory": "No",
      "Has No Data": "No"
    },
    {
      "Order": "16",
      "Dataset": "ADIS_V",
      "Variable": "DMDTC",
      "Label": "Date/Time of Collection",
      "Data Type": "text",
      "Length": "1",
      "Mandatory": "No",
      "Has No Data": "No"
    },
    {
      "Order": "17",
      "Dataset": "ADIS_V",
      "Variable": "DMDY",
      "Label": "Study Day of Collection",
      "Data Type": "integer",
      "Length": "8",
      "Mandatory": "No",
      "Has No Data": "No"
    },
    {
      "Order": "18",
      "Dataset": "ADIS_V",
      "Variable": "AGE",
      "Label": "Age",
      "Data Type": "integer",
      "Length": "8",
      "Mandatory": "No",
      "Role": "ADSL Subject Demographics Variables",
      "Has No Data": "No"
    },
    {
      "Order": "19",
      "Dataset": "ADIS_V",
      "Variable": "AGEU",
      "Label": "Age Units",
      "Data Type": "text",
      "Length": "5",
      "Mandatory": "No",
      "Role": "ADSL Subject Demographics Variables",
      "Has No Data": "No"
    },
    {
      "Order": "20",
      "Dataset": "ADIS_V",
      "Variable": "AGEGR1",
      "Label": "Pooled Age Group 1",
      "Data Type": "text",
      "Length": "3",
      "Mandatory": "No",
      "Has No Data": "No"
    },
    {
      "Order": "21",
      "Dataset": "ADIS_V",
      "Variable": "SEX",
      "Label": "Sex",
      "Data Type": "text",
      "Length": "1",
      "Mandatory": "No",
      "Role": "ADSL Subject Demographics Variables",
      "Has No Data": "No"
    },
    {
      "Order": "22",
      "Dataset": "ADIS_V",
      "Variable": "RACE",
      "Label": "Race",
      "Data Type": "text",
      "Length": "25",
      "Mandatory": "No",
      "Role": "ADSL Subject Demographics Variables",
      "Has No Data": "No"
    },
    {
      "Order": "23",
      "Dataset": "ADIS_V",
      "Variable": "RACEGR1",
      "Label": "Pooled Race Group 1",
      "Data Type": "text",
      "Length": "9",
      "Mandatory": "No",
      "Has No Data": "No"
    },
    {
      "Order": "24",
      "Dataset": "ADIS_V",
      "Variable": "ETHNIC",
      "Label": "Ethnicity",
      "Data Type": "text",
      "Length": "22",
      "Mandatory": "No",
      "Has No Data": "No"
    },
    {
      "Order": "25",
      "Dataset": "ADIS_V",
      "Variable": "SAFFL",
      "Label": "Safety Population Flag",
      "Data Type": "text",
      "Length": "1",
      "Mandatory": "No",
      "Role": "ADSL Population Indicator Variables",
      "Has No Data": "No"
    },
    {
      "Order": "26",
      "Dataset": "ADIS_V",
      "Variable": "PPROTFL",
      "Label": "Per-Protocol Population Flag",
      "Data Type": "text",
      "Length": "1",
      "Mandatory": "No",
      "Role": "ADSL Population Indicator Variables",
      "Has No Data": "No"
    },
    {
      "Order": "27",
      "Dataset": "ADIS_V",
      "Variable": "ARM",
      "Label": "Description of Planned Arm",
      "Data Type": "text",
      "Length": "19",
      "Mandatory": "No",
      "Role": "ADSL Treatment Variables",
      "Has No Data": "No"
    },
    {
      "Order": "28",
      "Dataset": "ADIS_V",
      "Variable": "ARMCD",
      "Label": "Planned Arm Code",
      "Data Type": "text",
      "Length": "5",
      "Mandatory": "No",
      "Has No Data": "No"
    },
    {
      "Order": "29",
      "Dataset": "ADIS_V",
      "Variable": "ACTARM",
      "Label": "Description of Actual Arm",
      "Data Type": "text",
      "Length": "19",
      "Mandatory": "No",
      "Role": "ADSL Treatment Variables",
      "Has No Data": "No"
    },
    {
      "Order": "30",
      "Dataset": "ADIS_V",
      "Variable": "ACTARMCD",
      "Label": "Actual Arm Code",
      "Data Type": "text",
      "Length": "5",
      "Mandatory": "No",
      "Has No Data": "No"
    },
    {
      "Order": "31",
      "Dataset": "ADIS_V",
      "Variable": "TRTP",
      "Label": "Planned Treatment",
      "Data Type": "text",
      "Length": "9",
      "Mandatory": "No",
      "Role": "Record-Level Treatment Variables for BDS Datasets",
      "Has No Data": "No"
    },
    {
      "Order": "32",
      "Dataset": "ADIS_V",
      "Variable": "TRTA",
      "Label": "Actual Treatment",
      "Data Type": "text",
      "Length": "9",
      "Mandatory": "No",
      "Role": "Record-Level Treatment Variables for BDS Datasets",
      "Has No Data": "No"
    },
    {
      "Order": "33",
      "Dataset": "ADIS_V",
      "Variable": "TRT01P",
      "Label": "Planned Treatment for Period 01",
      "Data Type": "text",
      "Length": "9",
      "Mandatory": "No",
      "Has No Data": "No"
    },
    {
      "Order": "34",
      "Dataset": "ADIS_V",
      "Variable": "TRT01A",
      "Label": "Actual Treatment for Period 01",
      "Data Type": "text",
      "Length": "9",
      "Mandatory": "No",
      "Has No Data": "No"
    },
    {
      "Order": "35",
      "Dataset": "ADIS_V",
      "Variable": "TRT02P",
      "Label": "Planned Treatment for Period 02",
      "Data Type": "text",
      "Length": "9",
      "Mandatory": "No",
      "Has No Data": "No"
    },
    {
      "Order": "36",
      "Dataset": "ADIS_V",
      "Variable": "TRT02A",
      "Label": "Actual Treatment for Period 02",
      "Data Type": "text",
      "Length": "9",
      "Mandatory": "No",
      "Has No Data": "No"
    },
    {
      "Order": "37",
      "Dataset": "ADIS_V",
      "Variable": "TRTSDT",
      "Label": "Date of First Exposure to Treatment",
      "Data Type": "integer",
      "Length": "8",
      "Format": "DATE",
      "Mandatory": "No",
      "Role": "ADSL Treatment Timing Variables",
      "Has No Data": "No"
    },
    {
      "Order": "38",
      "Dataset": "ADIS_V",
      "Variable": "TRTSDTM",
      "Label": "Datetime of First Exposure to Treatment",
      "Data Type": "integer",
      "Length": "8",
      "Format": "DATETIME",
      "Mandatory": "No",
      "Role": "ADSL Treatment Timing Variables",
      "Has No Data": "No"
    },
    {
      "Order": "39",
      "Dataset": "ADIS_V",
      "Variable": "TRTEDT",
      "Label": "Date of Last Exposure to Treatment",
      "Data Type": "integer",
      "Length": "8",
      "Format": "DATE",
      "Mandatory": "No",
      "Role": "ADSL Treatment Timing Variables",
      "Has No Data": "No"
    },
    {
      "Order": "40",
      "Dataset": "ADIS_V",
      "Variable": "TRTEDTM",
      "Label": "Datetime of Last Exposure to Treatment",
      "Data Type": "integer",
      "Length": "8",
      "Format": "DATETIME",
      "Mandatory": "No",
      "Role": "ADSL Treatment Timing Variables",
      "Has No Data": "No"
    },
    {
      "Order": "41",
      "Dataset": "ADIS_V",
      "Variable": "AP01SDT",
      "Label": "Period 01 Start Date",
      "Data Type": "integer",
      "Length": "8",
      "Format": "DATE",
      "Mandatory": "No",
      "Has No Data": "No"
    },
    {
      "Order": "42",
      "Dataset": "ADIS_V",
      "Variable": "AP01EDT",
      "Label": "Period 01 End Date",
      "Data Type": "integer",
      "Length": "8",
      "Format": "DATE",
      "Mandatory": "No",
      "Has No Data": "No"
    },
    {
      "Order": "43",
      "Dataset": "ADIS_V",
      "Variable": "AP02SDT",
      "Label": "Period 02 Start Date",
      "Data Type": "integer",
      "Length": "8",
      "Format": "DATE",
      "Mandatory": "No",
      "Has No Data": "No"
    },
    {
      "Order": "44",
      "Dataset": "ADIS_V",
      "Variable": "AP02EDT",
      "Label": "Period 02 End Date",
      "Data Type": "integer",
      "Length": "8",
      "Format": "DATE",
      "Mandatory": "No",
      "Has No Data": "No"
    },
    {
      "Order": "45",
      "Dataset": "ADIS_V",
      "Variable": "APERSDT",
      "Label": "Period Start Date",
      "Data Type": "integer",
      "Length": "8",
      "Format": "DATE",
      "Mandatory": "No",
      "Role": "Period, Subperiod, and Phase Start and End Timing Variables",
      "Has No Data": "No"
    },
    {
      "Order": "46",
      "Dataset": "ADIS_V",
      "Variable": "APEREDT",
      "Label": "Period End Date",
      "Data Type": "integer",
      "Length": "8",
      "Format": "DATE",
      "Mandatory": "No",
      "Role": "Period, Subperiod, and Phase Start and End Timing Variables",
      "Has No Data": "No"
    },
    {
      "Order": "47",
      "Dataset": "ADIS_V",
      "Variable": "RFICDTC",
      "Label": "Date/Time of Informed Consent",
      "Data Type": "datetime",
      "Mandatory": "No",
      "Has No Data": "No"
    },
    {
      "Order": "48",
      "Dataset": "ADIS_V",
      "Variable": "TRTDURD",
      "Label": "Total Treatment Duration (Days)",
      "Data Type": "integer",
      "Length": "8",
      "Mandatory": "No",
      "Role": "ADSL Subject-Level Trial Experience Variables",
      "Has No Data": "No"
    },
    {
      "Order": "49",
      "Dataset": "ADIS_V",
      "Variable": "ADT",
      "Label": "Analysis Date",
      "Data Type": "integer",
      "Length": "8",
      "Format": "DATE",
      "Mandatory": "No",
      "Role": "Timing Variables for BDS Datasets",
      "Has No Data": "No"
    },
    {
      "Order": "50",
      "Dataset": "ADIS_V",
      "Variable": "ADY",
      "Label": "Analysis Relative Day",
      "Data Type": "integer",
      "Length": "8",
      "Mandatory": "No",
      "Role": "Timing Variables for BDS Datasets",
      "Has No Data": "No"
    },
    {
      "Order": "51",
      "Dataset": "ADIS_V",
      "Variable": "AVISIT",
      "Label": "Analysis Visit",
      "Data Type": "text",
      "Length": "7",
      "Mandatory": "No",
      "Role": "Timing Variables for BDS Datasets",
      "Has No Data": "No"
    },
    {
      "Order": "52",
      "Dataset": "ADIS_V",
      "Variable": "AVISITN",
      "Label": "Analysis Visit (N)",
      "Data Type": "integer",
      "Length": "8",
      "Mandatory": "No",
      "Role": "Timing Variables for BDS Datasets",
      "Has No Data": "No"
    },
    {
      "Order": "53",
      "Dataset": "ADIS_V",
      "Variable": "ATPT",
      "Label": "Analysis Timepoint",
      "Data Type": "text",
      "Length": "16",
      "Mandatory": "No",
      "Role": "Timing Variables for BDS Datasets",
      "Has No Data": "No"
    },
    {
      "Order": "54",
      "Dataset": "ADIS_V",
      "Variable": "ATPTN",
      "Label": "Analysis Timepoint (N)",
      "Data Type": "integer",
      "Length": "8",
      "Mandatory": "No",
      "Role": "Timing Variables for BDS Datasets",
      "Has No Data": "No"
    },
    {
      "Order": "55",
      "Dataset": "ADIS_V",
      "Variable": "ATPTREF",
      "Label": "Analysis Timepoint Reference",
      "Data Type": "text",
      "Length": "16",
      "Mandatory": "No",
      "Role": "Timing Variables for BDS Datasets",
      "Has No Data": "No"
    },
    {
      "Order": "56",
      "Dataset": "ADIS_V",
      "Variable": "APERIOD",
      "Label": "Period",
      "Data Type": "integer",
      "Length": "8",
      "Mandatory": "No",
      "Role": "Timing Variables for BDS Datasets",
      "Has No Data": "No"
    },
    {
      "Order": "57",
      "Dataset": "ADIS_V",
      "Variable": "PARAM",
      "Label": "Parameter",
      "Data Type": "text",
      "Length": "30",
      "Mandatory": "Yes",
      "Role": "Analysis Parameter Variables for BDS Datasets",
      "Has No Data": "No"
    },
    {
      "Order": "58",
      "Dataset": "ADIS_V",
      "Variable": "PARAMCD",
      "Label": "Parameter Code",
      "Data Type": "text",
      "Length": "8",
      "Mandatory": "Yes",
      "Role": "Analysis Parameter Variables for BDS Datasets",
      "Has No Data": "No"
    },
    {
      "Order": "59",
      "Dataset": "ADIS_V",
      "Variable": "PARAMN",
      "Label": "Parameter (N)",
      "Data Type": "integer",
      "Length": "8",
      "Mandatory": "No",
      "Role": "Analysis Parameter Variables for BDS Datasets",
      "Has No Data": "No"
    },
    {
      "Order": "60",
      "Dataset": "ADIS_V",
      "Variable": "PARCAT1",
      "Label": "Parameter Category 1",
      "Data Type": "text",
      "Length": "10",
      "Mandatory": "No",
      "Has No Data": "No"
    },
    {
      "Order": "61",
      "Dataset": "ADIS_V",
      "Variable": "AVAL",
      "Label": "Analysis Value",
      "Data Type": "float",
      "Length": "5",
      "Significant Digits": "2",
      "Mandatory": "No",
      "Role": "Analysis Parameter Variables for BDS Datasets",
      "Has No Data": "No"
    },
    {
      "Order": "62",
      "Dataset": "ADIS_V",
      "Variable": "AVALU",
      "Label": "Analysis Value Unit",
      "Data Type": "text",
      "Length": "5",
      "Mandatory": "No",
      "Has No Data": "No"
    },
    {
      "Order": "63",
      "Dataset": "ADIS_V",
      "Variable": "BASE",
      "Label": "Baseline Value",
      "Data Type": "float",
      "Length": "8",
      "Significant Digits": "2",
      "Mandatory": "No",
      "Role": "Analysis Parameter Variables for BDS Datasets",
      "Has No Data": "No"
    },
    {
      "Order": "64",
      "Dataset": "ADIS_V",
      "Variable": "BASECAT1",
      "Label": "Baseline Category 1",
      "Data Type": "text",
      "Length": "19",
      "Mandatory": "No",
      "Has No Data": "No"
    },
    {
      "Order": "65",
      "Dataset": "ADIS_V",
      "Variable": "BASETYPE",
      "Label": "Baseline Type",
      "Data Type": "text",
      "Length": "7",
      "Mandatory": "No",
      "Role": "Analysis Parameter Variables for BDS Datasets",
      "Has No Data": "No"
    },
    {
      "Order": "66",
      "Dataset": "ADIS_V",
      "Variable": "CHG",
      "Label": "Change from Baseline",
      "Data Type": "float",
      "Length": "8",
      "Significant Digits": "2",
      "Mandatory": "No",
      "Role": "Analysis Parameter Variables for BDS Datasets",
      "Has No Data": "No"
    },
    {
      "Order": "67",
      "Dataset": "ADIS_V",
      "Variable": "R2BASE",
      "Label": "Ratio to Baseline",
      "Data Type": "float",
      "Length": "11",
      "Significant Digits": "8",
      "Mandatory": "No",
      "Role": "Analysis Parameter Variables for BDS Datasets",
      "Has No Data": "No"
    },
    {
      "Order": "68",
      "Dataset": "ADIS_V",
      "Variable": "CRIT1",
      "Label": "Analysis Criterion 1",
      "Data Type": "text",
      "Length": "15",
      "Mandatory": "No",
      "Has No Data": "No"
    },
    {
      "Order": "69",
      "Dataset": "ADIS_V",
      "Variable": "CRIT1FL",
      "Label": "Criterion 1 Evaluation Result Flag",
      "Data Type": "text",
      "Length": "1",
      "Mandatory": "No",
      "Has No Data": "No"
    },
    {
      "Order": "70",
      "Dataset": "ADIS_V",
      "Variable": "CRIT1FN",
      "Label": "Criterion 1 Evaluation Result Flag (N)",
      "Data Type": "integer",
      "Length": "8",
      "Mandatory": "No",
      "Has No Data": "No"
    },
    {
      "Order": "71",
      "Dataset": "ADIS_V",
      "Variable": "DTYPE",
      "Label": "Derivation Type",
      "Data Type": "text",
      "Length": "8",
      "Mandatory": "No",
      "Role": "Analysis Descriptor Variables for BDS Datasets",
      "Has No Data": "No"
    },
    {
      "Order": "72",
      "Dataset": "ADIS_V",
      "Variable": "ABLFL",
      "Label": "Baseline Record Flag",
      "Data Type": "text",
      "Length": "1",
      "Mandatory": "No",
      "Role": "Flag Variables for BDS Datasets",
      "Has No Data": "No"
    },
    {
      "Order": "73",
      "Dataset": "ADIS_V",
      "Variable": "ISSEQ",
      "Label": "Sequence Number",
      "Data Type": "integer",
      "Length": "8",
      "Mandatory": "No",
      "Has No Data": "No"
    },
    {
      "Order": "74",
      "Dataset": "ADIS_V",
      "Variable": "ISTESTCD",
      "Label": "Immunogenicity Test/Exam Short Name",
      "Data Type": "text",
      "Length": "7",
      "Mandatory": "No",
      "Has No Data": "No"
    },
    {
      "Order": "75",
      "Dataset": "ADIS_V",
      "Variable": "ISTEST",
      "Label": "Immunogenicity Test or Examination Name",
      "Data Type": "text",
      "Length": "16",
      "Mandatory": "No",
      "Has No Data": "No"
    },
    {
      "Order": "76",
      "Dataset": "ADIS_V",
      "Variable": "ISCAT",
      "Label": "Category for Immunogenicity Test",
      "Data Type": "text",
      "Length": "10",
      "Mandatory": "No",
      "Has No Data": "No"
    },
    {
      "Order": "77",
      "Dataset": "ADIS_V",
      "Variable": "ISORRES",
      "Label": "Results or Findings in Original Units",
      "Data Type": "text",
      "Length": "5",
      "Mandatory": "No",
      "Has No Data": "No"
    },
    {
      "Order": "78",
      "Dataset": "ADIS_V",
      "Variable": "ISORRESU",
      "Label": "Original Units",
      "Data Type": "text",
      "Length": "5",
      "Mandatory": "No",
      "Has No Data": "No"
    },
    {
      "Order": "79",
      "Dataset": "ADIS_V",
      "Variable": "ISSTRESC",
      "Label": "Character Result/Finding in Std Format",
      "Data Type": "text",
      "Length": "5",
      "Mandatory": "No",
      "Has No Data": "No"
    },
    {
      "Order": "80",
      "Dataset": "ADIS_V",
      "Variable": "ISSTRESN",
      "Label": "Numeric Results/Findings in Std. Units",
      "Data Type": "float",
      "Length": "4",
      "Significant Digits": "1",
      "Mandatory": "No",
      "Has No Data": "No"
    },
    {
      "Order": "81",
      "Dataset": "ADIS_V",
      "Variable": "ISSTRESU",
      "Label": "Standard Units",
      "Data Type": "text",
      "Length": "5",
      "Mandatory": "No",
      "Has No Data": "No"
    },
    {
      "Order": "82",
      "Dataset": "ADIS_V",
      "Variable": "ISSTAT",
      "Label": "Completion Status",
      "Data Type": "text",
      "Length": "8",
      "Mandatory": "No",
      "Has No Data": "No"
    },
    {
      "Order": "83",
      "Dataset": "ADIS_V",
      "Variable": "ISREASND",
      "Label": "Reason Not Done",
      "Data Type": "text",
      "Length": "14",
      "Mandatory": "No",
      "Has No Data": "No"
    },
    {
      "Order": "84",
      "Dataset": "ADIS_V",
      "Variable": "ISNAM",
      "Label": "Vendor Name",
      "Data Type": "text",
      "Length": "7",
      "Mandatory": "No",
      "Has No Data": "No"
    },
    {
      "Order": "85",
      "Dataset": "ADIS_V",
      "Variable": "ISSPEC",
      "Label": "Specimen Type",
      "Data Type": "text",
      "Length": "5",
      "Mandatory": "No",
      "Has No Data": "No"
    },
    {
      "Order": "86",
      "Dataset": "ADIS_V",
      "Variable": "ISMETHOD",
      "Label": "Method of Test or Examination",
      "Data Type": "text",
      "Length": "10",
      "Mandatory": "No",
      "Has No Data": "No"
    },
    {
      "Order": "87",
      "Dataset": "ADIS_V",
      "Variable": "ISBLFL",
      "Label": "Baseline Flag",
      "Data Type": "text",
      "Length": "1",
      "Mandatory": "No",
      "Has No Data": "No"
    },
    {
      "Order": "88",
      "Dataset": "ADIS_V",
      "Variable": "ISLLOQ",
      "Label": "Lower Limit of Quantitation",
      "Data Type": "integer",
      "Length": "8",
      "Mandatory": "No",
      "Has No Data": "No"
    },
    {
      "Order": "89",
      "Dataset": "ADIS_V",
      "Variable": "VISITNUM",
      "Label": "Visit Number",
      "Data Type": "integer",
      "Length": "8",
      "Mandatory": "No",
      "Has No Data": "No"
    },
    {
      "Order": "90",
      "Dataset": "ADIS_V",
      "Variable": "EPOCH",
      "Label": "Epoch",
      "Data Type": "text",
      "Length": "16",
      "Mandatory": "No",
      "Has No Data": "No"
    },
    {
      "Order": "91",
      "Dataset": "ADIS_V",
      "Variable": "ISDTC",
      "Label": "Date/Time of Collection",
      "Data Type": "text",
      "Length": "7",
      "Mandatory": "No",
      "Has No Data": "No"
    },
    {
      "Order": "92",
      "Dataset": "ADIS_V",
      "Variable": "ISDY",
      "Label": "Study Day of Visit/Collection/Exam",
      "Data Type": "text",
      "Length": "2",
      "Mandatory": "No",
      "Has No Data": "No"
    },
    {
      "Order": "93",
      "Dataset": "ADIS_V",
      "Variable": "ISULOQ",
      "Label": "Upper Limit of Quantitation",
      "Data Type": "integer",
      "Length": "8",
      "Mandatory": "No",
      "Has No Data": "No"
    },
    {
      "Order": "94",
      "Dataset": "ADIS_V",
      "Variable": "IDVARVAL",
      "Label": "Identifying Variable Value",
      "Data Type": "integer",
      "Length": "8",
      "Mandatory": "No"
    },
    {
      "Order": "95",
      "Dataset": "ADIS_V",
      "Variable": "LOD",
      "Label": "Limit of Detection",
      "Data Type": "text",
      "Length": "1",
      "Mandatory": "No",
      "Has No Data": "No"
    },
    {
      "Order": "96",
      "Dataset": "ADIS_V",
      "Variable": "DERIVED",
      "Label": "Derivation Method",
      "Data Type": "text",
      "Length": "5",
      "Mandatory": "No"
    },
    {
      "Order": "97",
      "Dataset": "ADIS_V",
      "Variable": "CUTOFF02",
      "Label": "First Cutoff Value",
      "Data Type": "integer",
      "Length": "8",
      "Mandatory": "No",
      "Has No Data": "No"
    },
    {
      "Order": "98",
      "Dataset": "ADIS_V",
      "Variable": "CUTOFF03",
      "Label": "Second Cutoff Value",
      "Data Type": "integer",
      "Length": "8",
      "Mandatory": "No",
      "Has No Data": "No"
    },
    {
      "Order": "99",
      "Dataset": "ADIS_V",
      "Variable": "SERCAT1",
      "Label": "Pre-vaccination seropositivity status",
      "Data Type": "text",
      "Length": "7",
      "Mandatory": "No",
      "Has No Data": "No"
    },
    {
      "Order": "100",
      "Dataset": "ADIS_V",
      "Variable": "SERCAT1N",
      "Label": "Pre-vaccination sero status (n)",
      "Data Type": "integer",
      "Length": "8",
      "Mandatory": "No",
      "Has No Data": "No"
    },
    {
      "Order": "101",
      "Dataset": "ADIS_V",
      "Variable": "PPSRFL",
      "Label": "Per-Protocol Record-Level Flag",
      "Data Type": "text",
      "Length": "1",
      "Mandatory": "No",
      "Has No Data": "No"
    },
    {
      "Order": "102",
      "Dataset": "ADIS_V",
      "Variable": "INVID",
      "Label": "Investigator Identifier",
      "Data Type": "integer",
      "Length": "8",
      "Mandatory": "No",
      "Has No Data": "No"
    },
    {
      "Order": "103",
      "Dataset": "ADIS_V",
      "Variable": "INVNAM",
      "Label": "Investigator Name",
      "Data Type": "text",
      "Length": "13",
      "Mandatory": "No",
      "Has No Data": "No"
    },
    {
      "Order": "104",
      "Dataset": "ADIS_V",
      "Variable": "VAX01DT",
      "Label": "Vaccination Date 01",
      "Data Type": "integer",
      "Length": "8",
      "Format": "DATE",
      "Mandatory": "No",
      "Has No Data": "No"
    },
    {
      "Order": "105",
      "Dataset": "ADIS_V",
      "Variable": "VAX02DT",
      "Label": "Vaccination Date 02",
      "Data Type": "integer",
      "Length": "8",
      "Format": "DATE",
      "Mandatory": "No",
      "Has No Data": "No"
    },
    {
      "Order": "1",
      "Dataset": "ADLB",
      "Variable": "STUDYID",
      "Label": "Study Identifier",
      "Data Type": "text",
      "Length": "12",
      "Mandatory": "Yes",
      "Role": "Identifier Variables for BDS Datasets",
      "Has No Data": "No"
    },
    {
      "Order": "2",
      "Dataset": "ADLB",
      "Variable": "USUBJID",
      "Label": "Unique Subject Identifier",
      "Data Type": "text",
      "Length": "11",
      "Mandatory": "Yes",
      "Role": "Identifier Variables for BDS Datasets",
      "Has No Data": "No"
    },
    {
      "Order": "3",
      "Dataset": "ADLB",
      "Variable": "SUBJID",
      "Label": "Subject Identifier for the Study",
      "Data Type": "text",
      "Length": "4",
      "Mandatory": "No",
      "Role": "Identifier Variables for BDS Datasets",
      "Has No Data": "No"
