"STUDYID","USUBJID","SUBJID","RFSTDTC","RFENDTC","RFXSTDTC","RFXENDTC","RFICDTC","RFPENDTC","DTHDTC","DTHFL","SITEID","INVID","INVNAM","BRTHDTC","AGE","AGEU","SEX","RACE","ETHNIC","ARMCD","ARM","ACTARMCD","ACTARM","COUNTRY","DMDTC","DMDY","TRT01P","TRT02P","TRT01A","TRT02A","TRTSDTM","TRTEDTM","TRTSDT","TRTEDT","SAFFL","PPROTFL","RACEGR1","AGEGR1","REGION1","VAX01DT","VAX02DT","AP01SDT","AP01EDT","AP02SDT","AP02EDT"
"ABC","ABC-1001","1001","2021-11-03T10:50:00","2022-04-27","2021-11-03T10:50:00","2021-12-30T09:10:00","2021-10-28","2022-04-27",NA,NA,1001,1328,"Potter, Harry","1947-09-21",74,"YEARS","F","WHITE","NOT HISPANIC OR LATINO","VAXAB","VACCINE A VACCINE B","VAXAB","VACCINE A VACCINE B","USA",NA,NA,"VACCINE A","VACCINE B","VACCINE A","VACCINE B",2021-11-03 10:50:00,2021-12-30 09:10:00,2021-11-03,2021-12-30,"Y","Y","White",">64","NA",2021-11-03,2021-12-30,2021-11-03,2021-12-29,2021-12-30,2022-04-27
"ABC","ABC-1002","1002","2021-10-07T12:48:00","2022-06-14","2021-10-07T12:48:00","2021-12-16T12:41:00","2021-09-22","2022-06-14",NA,NA,1002,1212,"Gomez, Selena","1951-07-13",70,"YEARS","F","BLACK OR AFRICAN AMERICAN","HISPANIC OR LATINO","VAXAB","VACCINE A VACCINE B","VAXAB","VACCINE A VACCINE B","USA",NA,NA,"VACCINE A","VACCINE B","VACCINE A","VACCINE B",2021-10-07 12:48:00,2021-12-16 12:41:00,2021-10-07,2021-12-16,"Y","Y","Non-white",">64","NA",2021-10-07,2021-12-16,2021-10-07,2021-12-15,2021-12-16,2022-06-14
